Time,GyroscopeX,GyroscopeY,GyroscopeZ 
-0.376643,-4.06,9.671,-1.636
-0.366162,-1.68,9.347,-1.408
-0.355681,0.91,9.172,-1.226
-0.3452,3.36,8.815,-1.218
-0.334719,5.32,8.098,-0.776
-0.324238,7.28,7.149,-0.232
-0.313757,8.54,6.374,0.129
-0.303276,9.24,5.835,-0.037
-0.292795,9.87,5.292,0.222
-0.282314,10.29,4.465,0.076
-0.271833,10.29,3.645,0.287
-0.261352,10.22,3.495,0.332
-0.250871,9.8,2.826,0.498
-0.24039,9.73,2.295,0.689
-0.229909,9.1,1.882,0.616
-0.219428,8.96,1.322,0.162
-0.208947,8.54,1.119,-0.3
-0.198466,7.84,1.156,-0.507
-0.187985,7.56,1.066,-0.807
-0.177523,6.79,1.168,-0.576
-0.167061,6.02,1.16,-0.933
-0.156599,5.25,1.176,-1.428
-0.146137,4.83,1.314,-1.403
-0.135675,4.83,1.496,-1.229
-0.125213,4.55,1.691,-1.123
-0.114751,4.62,1.703,-1.192
-0.104289,4.13,2.153,-1.326
-0.093827,3.99,1.76,-1.111
-0.083365,4.06,1.549,-0.722
-0.072914,4.13,1.602,-0.215
-0.062463,4.2,1.496,-0.02
-0.052012,3.57,1.172,0.207
-0.041561,3.85,1.31,0.231
-0.03111,3.22,0.527,0.235
-0.020659,2.31,0.596,0.247
-0.010208,1.4,0.531,1.018
2.43E-4,0.49,0.377,1.488
0.010694,0.0,0.215,1.602
0.021145,-0.28,-0.081,1.265
0.031596,-0.7,-0.04,0.633
0.042047,-1.26,-0.219,1.241
0.052498,-1.26,-0.474,1.48
0.062934,-1.05,-0.819,1.419
0.07337,-1.19,-0.681,1.444
0.083806,-0.84,-1.155,1.715
0.094242,-0.98,-1.622,2.344
0.104678,-1.05,-1.845,2.802
0.115114,-0.56,-2.108,2.685
0.12555,-0.42,-2.368,2.141
0.135986,0.35,-2.295,1.728
0.146422,0.77,-2.611,1.103
0.156858,1.54,-2.697,0.377
0.167294,1.61,-2.713,-0.336
0.17773,2.38,-3.131,-1.192
0.188166,3.08,-3.151,-1.48
0.198599,3.43,-3.046,-1.674
0.209032,3.92,-2.129,-1.228
0.219465,4.06,-1.265,-1.289
0.229898,3.64,-0.819,-0.997
0.240331,2.94,-0.547,-0.523
0.250764,2.45,-0.105,0.195
0.261197,1.68,0.612,0.961
0.27163,1.19,0.775,2.056
0.282063,0.28,1.026,2.242
0.292496,-0.63,1.148,2.761
0.302929,-1.82,1.168,3.049
0.313362,-2.45,1.075,3.175
0.323795,-3.01,1.095,3.463
0.334228,-3.43,0.933,3.576
0.344669,-3.85,0.475,3.353
0.35511,-4.06,0.369,3.548
0.365551,-3.99,-0.932,3.674
0.375992,-3.99,-1.427,3.658
0.386433,-3.85,-2.096,3.824
0.396874,-3.64,-2.08,3.329
0.407315,-3.5,-2.652,2.944
0.417756,-3.08,-3.272,2.835
0.428197,-2.8,-3.726,2.186
0.438638,-1.89,-4.748,1.935
0.449079,-0.77,-5.182,1.574
0.459552,0.0,-5.344,1.688
0.470025,0.84,-6.115,1.623
0.480498,1.82,-6.459,1.562
0.490971,3.08,-6.869,1.063
0.501444,3.71,-6.816,0.362
0.511917,4.34,-6.492,0.135
0.52239,4.41,-6.253,0.39
0.532863,4.62,-5.977,0.439
0.543336,4.83,-5.794,0.613
0.553809,4.83,-5.474,0.812
0.564282,3.99,-5.478,1.238
0.574755,3.22,-4.756,1.578
0.585241,2.94,-4.059,2.056
0.595727,2.59,-3.39,1.89
0.606213,2.03,-2.895,1.906
0.616699,1.82,-2.437,2.129
0.627185,2.17,-2.052,1.557
0.637671,1.96,-1.281,1.622
0.648157,2.24,-1.289,1.265
0.658643,2.31,-1.598,0.998
0.669129,2.73,-1.103,1.014
0.679615,3.01,-0.973,0.681
0.690101,3.15,-1.119,0.3
0.700587,3.15,-1.318,0.621
0.711073,3.08,-1.65,0.491
0.721559,2.87,-1.293,0.483
0.732045,3.29,-1.476,0.308
0.742551,2.8,-1.59,0.146
0.753057,2.73,-1.545,0.296
0.763563,2.24,-1.594,0.572
0.774069,1.96,-1.48,0.734
0.784575,1.54,-1.091,0.945
0.795081,1.26,-1.172,1.002
0.805587,0.7,-1.229,0.921
0.816093,0.63,-1.346,1.184
0.826599,0.35,-1.172,1.002
0.837105,0.21,-0.738,1.363
0.847608,0.21,-1.249,1.841
0.858111,-0.21,-1.33,1.898
0.868614,0.0,-1.086,1.728
0.879117,-0.28,-1.504,2.08
0.88962,-0.07,-1.654,2.125
0.900123,-0.07,-1.699,1.975
0.910626,0.28,-1.658,2.551
0.921129,0.63,-2.035,2.271
0.931632,0.77,-2.193,1.959
0.942135,0.63,-2.344,2.003
0.952638,0.63,-2.607,1.886
0.963141,0.7,-2.51,1.334
0.973644,1.33,-2.153,1.326
0.984183,1.26,-2.048,1.132
0.994722,1.33,-1.589,1.355
1.005261,1.19,-1.52,1.367
1.0158,1.19,-1.233,1.346
1.026339,1.19,-1.168,1.784
1.036878,0.98,-0.478,1.906
1.047417,0.84,-0.158,2.105
1.057956,0.42,-0.113,2.255
1.068495,0.28,-0.166,1.748
1.079034,0.21,-0.028,1.772
1.089573,0.14,-0.04,1.841
1.100112,0.28,-0.134,1.967
1.110661,0.63,-0.271,1.942
1.12121,0.77,-0.604,1.813
1.131759,1.05,-0.705,1.582
1.142308,0.63,-0.912,1.545
1.152857,0.7,-0.726,1.294
1.163406,1.05,-1.172,1.002
1.173955,1.12,-1.301,1.334
1.184504,1.05,-1.305,1.76
1.195053,1.33,-1.2,1.565
1.205602,1.54,-0.807,1.35
1.216151,1.75,-0.831,1.488
1.2267,2.03,-1.172,1.002
1.237249,2.03,-0.92,1.188
1.247816,2.31,-0.689,1.087
1.258383,2.24,-0.584,0.892
1.26895,2.8,-0.418,0.353
1.279517,2.59,-0.215,0.815
1.290084,2.52,-0.511,0.479
1.300651,2.38,-0.178,0.608
1.311218,2.31,-0.154,0.47
1.321785,2.8,-0.361,0.434
1.332352,2.38,-0.04,0.633
1.342919,2.52,-0.004,0.426
1.353486,2.52,-0.523,0.547
1.364053,2.1,-0.365,0.86
1.374611,1.96,-0.523,0.547
1.385169,1.82,-0.405,0.284
1.395727,1.68,-0.454,0.56
1.406285,1.47,-0.377,0.929
1.416843,0.84,-0.754,0.649
1.427401,1.05,-0.973,0.681
1.437959,1.26,-0.868,0.487
1.448517,0.77,-0.722,0.868
1.459075,0.84,-0.397,0.641
1.469633,1.12,-0.353,0.791
1.480191,0.77,-0.227,0.884
1.490749,0.77,-0.227,0.884
1.501307,0.63,-0.215,0.815
1.511874,0.77,-0.215,0.815
1.522441,0.84,-0.527,0.973
1.533008,0.98,0.016,0.714
1.543575,1.19,-0.032,0.989
1.554142,1.33,-0.069,1.196
1.564709,1.33,-0.353,0.791
1.575276,1.54,-0.134,0.758
1.585843,1.75,-0.158,0.896
1.59641,1.68,-0.207,1.172
1.606977,1.26,-0.243,1.379
1.617544,1.12,-0.207,1.172
1.628111,1.19,-0.389,0.998
1.638655,1.12,-0.409,0.71
1.649199,0.91,0.122,0.519
1.659743,0.91,0.341,0.487
1.670287,0.84,-0.203,0.746
1.680831,0.77,-0.288,1.229
1.691375,0.77,-0.43,1.63
1.701919,1.26,-0.636,1.594
1.712463,1.4,-0.936,1.683
1.723007,1.4,-0.928,2.04
1.733551,1.33,-1.273,1.979
1.744095,1.4,-1.05,1.521
1.754639,1.47,-1.314,1.403
1.765183,1.47,-1.37,1.322
1.775739,1.4,-1.358,1.253
1.786295,1.4,-1.147,0.864
1.796851,0.98,-1.058,1.164
1.807407,1.12,-0.774,1.569
1.817963,0.98,-0.612,1.456
1.828519,0.7,-0.482,1.123
1.839075,0.35,-0.158,0.896
1.849631,0.21,0.126,1.302
1.860187,0.07,0.471,1.362
1.870743,0.14,0.353,1.626
1.881299,-0.14,0.308,1.476
1.891855,0.07,-0.085,1.691
1.902424,0.0,-0.016,1.703
1.912993,-0.42,-0.361,1.642
1.923562,-0.35,-0.43,1.63
1.934131,-0.28,-0.511,1.687
1.9447,-0.07,-0.762,1.5
1.955269,-0.07,-0.693,1.513
1.965838,-0.14,-0.774,1.569
1.976407,0.0,-1.078,2.084
1.986976,-0.14,-1.196,2.348
1.997545,-0.35,-1.265,2.336
2.008114,0.14,-1.204,1.991
2.018683,0.14,-1.155,1.715
2.029227,0.49,-1.314,1.403
2.039771,0.42,-0.981,1.533
2.050315,0.7,-0.888,1.407
2.060859,0.7,-0.762,1.5
2.071403,1.05,-0.495,1.192
2.081947,0.98,-0.807,1.35
2.092491,0.77,-1.164,1.359
2.103035,0.98,-0.807,1.35
2.113579,0.7,-0.701,1.156
2.124123,0.63,-0.701,1.156
2.134667,0.63,-0.551,1.111
2.145211,0.77,-0.803,0.925
2.155755,0.63,-0.835,0.706
2.166267,0.77,-0.815,0.994
2.176779,0.49,-0.803,0.925
2.187291,0.49,-0.515,0.904
2.197803,0.56,-0.916,0.762
2.208315,0.42,-0.973,0.681
2.218827,0.07,-0.559,0.754
2.229339,-0.21,-0.158,0.896
2.239851,-0.21,-0.535,0.616
2.250363,-0.49,-0.02,0.92
2.260875,-1.26,0.073,0.795
2.271387,-1.4,0.268,0.9
2.281899,-1.89,0.544,0.949
2.292411,-2.1,0.892,0.584
2.302886,-2.73,0.787,0.778
2.313361,-3.64,0.945,1.091
2.323836,-4.55,1.59,1.062
2.334311,-5.53,2.178,0.953
2.344786,-5.95,2.701,1.614
2.355261,-6.23,3.118,1.261
2.365736,-6.65,3.828,1.67
2.376211,-6.72,4.607,2.092
2.386686,-6.16,5.474,1.605
2.397161,-5.32,6.237,1.313
2.407636,-5.25,6.971,1.585
2.418111,-4.2,7.762,1.937
2.428586,-3.22,7.863,2.168
2.439062,-2.03,8.199,1.872
2.449538,-0.77,8.345,2.253
2.460014,-0.91,8.65,2.947
2.47049,-0.63,8.544,3.141
2.480966,-0.35,8.524,2.854
2.491442,0.0,8.281,3.024
2.501918,1.33,8.273,2.667
2.512394,2.52,7.782,2.225
2.52287,4.41,7.417,1.876
2.533346,6.37,7.328,1.576
2.543822,8.05,6.549,1.155
2.554298,9.52,6.229,0.956
2.564774,10.22,5.507,0.616
2.57523,10.71,4.68,0.47
2.585686,10.08,3.966,0.486
2.596142,9.17,3.285,0.721
2.606598,8.4,2.964,1.731
2.617054,7.42,4.25,3.308
2.62751,7.0,6.294,6.228
2.637966,7.56,9.255,9.593
2.648422,8.96,12.759,12.698
2.658878,10.22,16.494,14.494
2.669334,10.99,19.527,16.238
2.67979,11.06,22.662,17.003
2.690246,10.64,25.046,17.993
2.700702,8.75,26.255,17.992
2.711158,4.41,25.484,17.928
2.721646,2.73,23.951,16.947
2.732134,1.61,22.402,15.252
2.742622,1.05,20.508,13.496
2.75311,0.84,18.375,11.485
2.763598,2.66,15.816,9.47
2.774086,4.48,13.788,7.265
2.784574,5.04,11.225,5.675
2.795062,5.74,8.451,4.476
2.80555,5.46,5.434,3.446
2.816038,3.92,2.94,3.077
2.826526,2.31,0.933,2.368
2.83704,1.47,-0.912,1.545
2.847554,1.19,-2.903,0.341
2.858068,1.54,-4.355,0.512
2.868582,2.17,-5.413,0.467
2.879096,1.89,-5.884,0.313
2.88961,2.17,-6.46,0.354
2.900124,1.61,-5.843,0.889
2.910638,1.05,-5.47,1.594
2.921152,0.56,-4.663,2.661
2.931666,0.0,-4.079,2.977
2.94218,0.0,-3.414,3.236
2.952694,0.07,-2.915,2.827
2.963208,-0.21,-2.603,2.669
2.973781,-1.12,-2.072,2.478
2.984354,-1.54,-2.06,2.409
2.994927,-1.68,-2.287,2.085
3.0055,-1.54,-2.753,1.505
3.016073,-1.26,-2.567,1.253
3.026646,-1.4,-2.473,1.128
3.037219,-2.38,-2.368,0.933
3.047792,-3.15,-2.19,0.325
3.058365,-3.64,-2.303,0.163
3.068938,-4.62,-1.983,0.361
3.079511,-4.62,-1.805,-0.247
3.090084,-4.27,-1.513,-0.693
3.100677,-3.57,-1.018,-0.677
3.11127,-2.59,-1.018,-0.677
3.121863,-1.96,-0.925,-0.803
3.132456,-1.4,-1.014,-1.103
3.143049,-0.84,-1.095,-1.046
3.153642,-0.84,-1.269,-0.864
3.164235,-1.19,-1.35,-0.807
3.174828,-1.47,-1.488,-0.831
3.185421,-1.89,-1.926,-0.766
3.196014,-1.75,-1.813,-0.604
3.206607,-1.68,-2.283,-0.758
3.2172,-2.17,-2.023,-0.215
3.227793,-2.59,-2.186,-0.101
3.238386,-2.8,-2.275,-0.401
3.248987,-3.22,-2.234,0.175
3.259588,-3.5,-2.55,0.759
3.270189,-3.78,-2.092,0.982
3.28079,-4.06,-2.023,0.994
3.291391,-3.99,-1.91,1.156
3.301992,-4.13,-2.21,1.245
3.312593,-4.2,-1.95,1.789
3.323194,-3.92,-2.202,1.602
3.333795,-3.85,-2.85,2.056
3.344396,-4.13,-2.923,2.47
3.354997,-4.27,-3.146,2.928
3.365598,-4.48,-3.641,2.912
3.376235,-4.41,-3.763,2.393
3.386872,-3.78,-4.034,1.919
3.397509,-2.94,-3.949,1.436
3.408146,-1.82,-4.002,0.929
3.418783,-0.7,-3.589,1.002
3.42942,0.21,-3.52,1.014
3.440057,0.7,-2.705,1.229
3.450694,0.63,-2.473,1.128
3.461331,0.98,-2.356,0.864
3.471968,1.33,-1.748,1.042
3.482605,1.54,-1.245,1.415
3.493242,1.4,-0.588,1.318
3.503879,1.12,0.081,1.152
3.514509,0.84,0.191,1.74
3.525139,0.14,-0.056,2.336
3.535769,-0.28,-0.413,2.344
3.546399,-0.14,-0.778,1.995
3.557029,0.42,-1.038,2.66
3.567659,0.28,-1.52,2.575
3.578289,0.0,-1.966,2.283
3.588919,-0.14,-2.36,1.29
3.599549,0.14,-2.522,1.403
3.610179,-0.28,-3.077,1.732
3.620809,-0.14,-3.122,1.582
3.631439,0.84,-3.406,1.176
3.642069,1.82,-3.479,1.59
3.652712,2.45,-2.826,1.918
3.663355,2.8,-2.729,1.367
3.673998,2.59,-1.918,0.799
3.684641,2.17,-1.075,0.45
3.695284,1.61,-0.089,0.908
3.705927,0.77,0.191,1.74
3.71657,0.14,0.767,1.699
3.727213,0.14,1.123,1.691
3.737856,-0.14,1.379,1.451
3.748499,-0.56,1.083,1.115
3.759142,-0.77,1.371,1.095
3.769785,-0.98,1.614,0.924
3.780435,-1.47,1.557,0.843
3.791085,-1.96,0.819,0.997
3.801735,-2.38,0.738,1.054
3.812385,-2.59,1.026,1.034
3.823035,-3.01,1.245,1.001
3.833685,-3.43,1.383,1.026
3.844335,-3.64,1.756,0.523
3.854985,-4.06,2.088,0.653
3.865635,-4.69,2.251,0.539
3.876285,-5.32,2.652,0.681
3.886935,-6.3,3.159,0.628
3.897585,-7.28,3.423,0.746
3.908235,-8.4,3.824,0.888
3.918885,-9.24,4.262,0.823
3.929522,-10.71,4.457,0.928
3.940159,-12.25,5.032,0.887
3.950796,-14.0,5.215,1.062
3.961433,-15.61,5.872,0.964
3.97207,-17.22,6.435,0.993
3.982707,-19.25,7.129,1.897
3.993344,-20.86,7.851,2.237
4.003981,-22.61,8.175,2.01
4.014618,-24.36,8.633,2.233
4.025255,-25.69,9.298,2.493
4.035892,-27.23,9.769,2.647
4.046529,-28.91,10.434,2.906
4.057152,-30.73,10.791,2.898
4.067775,-32.97,10.844,3.405
4.078398,-34.65,11.2,3.397
4.089021,-36.75,11.306,3.202
4.099644,-38.22,11.269,3.409
4.110267,-39.55,11.375,3.214
4.12089,-40.39,11.354,2.926
4.131513,-41.02,11.188,2.257
4.142136,-41.79,10.628,1.803
4.152759,-42.28,10.231,1.235
4.163382,-42.21,9.862,1.312
4.174005,-41.86,9.388,1.584
4.184628,-41.02,8.617,1.519
4.195242,-40.04,8.001,0.984
4.205856,-39.06,7.295,1.357
4.21647,-37.24,6.075,1.427
4.227084,-35.77,5.884,2.104
4.237698,-34.09,5.357,1.869
4.248312,-32.13,4.915,1.151
4.258926,-30.52,4.781,0.701
4.26954,-28.56,4.538,0.871
4.280154,-26.04,4.339,1.192
4.290768,-23.87,4.002,1.488
4.301382,-21.84,3.682,1.289
4.311996,-19.11,3.118,1.261
4.32261,-16.8,3.196,1.63
4.333177,-14.49,2.523,2.222
4.343744,-12.32,2.028,2.206
4.354311,-10.57,1.257,2.141
4.364878,-8.61,0.45,2.283
4.375445,-7.49,-0.519,2.538
4.386012,-6.16,-1.208,2.417
4.396579,-4.27,-1.662,1.768
4.407146,-2.87,-2.222,1.314
4.417713,-1.61,-2.956,1.043
4.42828,-0.35,-3.532,1.083
4.438847,0.49,-3.507,0.945
4.449414,1.96,-3.889,1.091
4.459981,3.36,-3.795,0.966
4.470516,4.9,-3.066,0.455
4.481051,6.58,-2.563,-0.381
4.491586,7.98,-1.646,-1.143
4.502121,7.98,-1.379,-1.451
4.512656,8.89,-0.645,-2.388
4.523191,10.57,0.068,-3.613
4.533726,14.21,0.729,-4.136
4.544261,19.39,1.05,-3.938
4.554796,23.52,1.184,-3.487
4.565331,26.18,1.082,-3.719
4.575866,27.72,1.179,-4.27
4.586401,29.61,1.139,-4.846
4.596906,31.99,0.595,-4.586
4.607411,33.11,-0.272,-4.1
4.617916,32.97,-1.517,-3.893
4.628421,32.34,-2.932,-3.929
4.638926,30.66,-4.234,-3.803
4.649431,28.42,-4.793,-3.049
4.659936,26.11,-5.633,-3.126
4.670441,23.03,-5.969,-2.83
4.680946,21.07,-6.091,-2.14
4.691451,19.39,-6.711,-1.041
4.701956,17.92,-7.173,-0.838
4.712461,16.1,-7.441,-0.53
4.722966,14.7,-6.881,-0.076
4.733462,13.23,-6.293,-0.186
4.743958,12.53,-6.083,-0.575
4.754454,12.18,-5.791,-1.021
4.76495,11.62,-5.186,-0.417
4.775446,11.62,-4.744,0.301
4.785942,12.39,-4.124,0.41
4.796438,13.09,-3.686,0.345
4.806934,14.77,-2.94,0.548
4.81743,16.17,-2.234,0.175
4.827926,18.2,-1.906,0.73
4.838422,19.11,-1.379,0.965
4.848918,19.74,-0.799,0.499
4.859414,20.3,-0.543,0.26
4.869861,21.07,-0.231,0.101
4.880308,20.86,-0.024,0.138
4.890755,19.81,0.308,0.268
4.901202,19.39,0.527,0.235
4.911649,19.18,0.564,0.028
4.922096,18.27,1.087,0.689
4.932543,17.43,1.638,0.786
4.94299,17.01,1.938,0.697
4.953437,16.94,2.161,0.239
4.963884,17.15,2.437,0.288
4.974331,16.66,2.616,0.888
4.984778,16.45,2.912,1.224
4.995225,15.96,2.514,1.865
5.005629,15.19,2.636,2.384
5.016033,14.42,3.066,3.171
5.026437,13.16,3.273,3.207
5.036841,12.6,3.309,3.0
5.047245,11.97,3.24,2.988
5.057649,11.06,3.772,2.797
5.068053,10.64,3.934,2.684
5.078457,10.15,3.954,2.972
5.088861,9.94,4.278,2.745
5.099265,9.45,4.404,2.838
5.109669,9.45,4.007,2.27
5.120073,9.52,4.193,2.019
5.130477,9.52,3.686,2.072
5.140881,9.38,3.439,1.459
5.151248,9.52,2.753,0.912
5.161615,9.38,2.145,0.734
5.171982,8.54,1.525,0.624
5.182349,8.4,0.904,0.515
5.192716,8.12,0.515,0.304
5.203083,8.47,0.081,-0.057
5.21345,8.33,-0.426,-0.004
5.223817,7.84,-0.864,0.061
5.234184,7.56,-1.05,0.312
5.244551,7.35,-1.168,0.576
5.254918,7.21,-1.318,0.621
5.265285,6.86,-1.285,0.84
5.275652,6.58,-1.16,0.933
5.286003,6.37,-0.965,1.038
5.296354,6.37,-0.961,0.612
5.306705,6.51,-1.31,0.977
5.317056,6.65,-0.888,1.407
5.327407,6.3,-1.014,1.314
5.337758,6.09,-0.876,1.338
5.348109,5.81,-0.9,1.476
5.35846,5.6,-1.204,1.991
5.368811,4.9,-0.835,1.914
5.379162,5.04,-0.88,1.764
5.389513,4.62,-0.705,1.582
5.399864,4.13,-0.799,1.707
5.410208,3.92,-1.062,1.59
5.420552,3.92,-1.038,1.452
5.430896,3.43,-1.346,1.184
5.44124,2.87,-1.46,1.022
5.451584,2.66,-1.679,1.055
5.461928,2.66,-1.654,0.917
5.472272,2.17,-1.525,0.584
5.482616,2.17,-1.833,0.317
5.49296,2.03,-1.849,0.811
5.503304,1.96,-1.598,0.998
5.513648,2.03,-1.403,1.103
5.523992,2.52,-1.058,1.164
5.534336,2.87,-1.334,1.115
5.544689,3.08,-1.241,0.99
5.555042,3.29,-1.573,0.86
5.565395,4.2,-1.346,1.184
5.575748,5.18,-1.245,1.415
5.586101,5.53,-1.37,1.322
5.596454,5.81,-1.419,1.598
5.606807,6.65,-1.086,1.728
5.61716,7.35,-1.512,1.724
5.627513,7.7,-1.476,1.517
5.637866,8.26,-1.212,1.634
5.648219,9.17,-1.001,1.245
5.658572,10.22,-0.701,1.156
5.668936,10.92,-0.977,1.107
5.6793,11.97,-0.92,1.188
5.689664,13.51,-0.296,0.872
5.700028,15.75,-0.235,0.527
5.710392,17.78,0.47,0.154
5.720756,19.95,1.208,-0.0
5.73112,21.84,2.875,0.223
5.741484,23.31,4.765,1.196
5.751848,25.13,7.084,2.955
5.762212,27.3,10.11,4.341
5.772576,28.98,12.811,5.955
5.78294,30.52,15.69,6.96
5.793304,30.87,18.111,7.743
5.803668,30.8,20.876,8.586
5.814032,30.03,23.39,9.242
5.824437,28.35,25.799,8.885
5.834842,26.18,28.009,8.848
5.845247,23.59,29.436,8.816
5.855652,20.72,30.726,8.759
5.866057,18.27,31.74,8.653
5.876462,15.96,32.311,9.038
5.886867,13.93,33.143,8.758
5.897272,12.46,33.564,7.98
5.907677,11.27,33.775,7.59
5.918082,10.15,33.653,7.071
5.928544,9.66,32.968,6.524
5.939006,9.31,32.53,6.589
5.949468,8.96,31.691,6.512
5.95993,9.8,30.957,6.24
5.970392,10.71,29.708,5.665
5.980854,12.04,28.341,5.353
5.991316,13.51,26.975,5.041
6.001778,14.91,25.409,5.049
6.01224,16.94,23.41,4.696
6.022702,18.76,21.168,4.514
6.033164,20.65,19.371,4.624
6.043626,22.75,17.474,4.503
6.054127,24.99,15.852,4.43
6.064628,26.95,14.144,3.631
6.075129,28.7,12.607,3.076
6.08563,29.26,11.61,2.687
6.096131,29.26,10.856,2.127
6.106632,28.42,10.032,1.556
6.117133,26.6,9.542,1.114
6.127634,23.52,8.812,0.416
6.138135,20.3,7.964,-0.017
6.148636,17.08,7.287,-0.208
6.159137,14.49,6.634,-0.536
6.169638,11.62,5.661,-1.063
6.180139,9.8,4.744,-1.509
6.190649,8.12,3.978,-2.0
6.201159,7.21,2.785,-2.494
6.211669,6.16,1.634,-2.413
6.222179,5.95,0.401,-2.275
6.232689,5.74,-0.471,-2.571
6.243199,5.04,-1.76,-2.514
6.253709,4.69,-3.017,-2.238
6.264219,4.06,-4.351,-2.331
6.274729,3.43,-5.515,-2.181
6.285239,2.66,-6.671,-1.674
6.295749,2.1,-7.571,-1.406
6.306259,1.61,-8.333,-1.114
6.316769,0.7,-8.889,-0.785
6.327279,0.28,-9.558,-0.619
6.337789,-0.56,-10.02,-0.416
6.348371,-1.12,-10.697,-0.607
6.358953,-1.61,-11.123,-0.611
6.369535,-2.1,-11.261,-0.635
6.380117,-3.01,-11.468,-0.672
6.390699,-3.22,-11.707,-0.927
6.401281,-3.43,-11.889,-1.101
6.411863,-3.43,-11.727,-1.215
6.422445,-3.78,-11.358,-1.292
6.433027,-4.06,-10.689,-1.458
6.443609,-3.99,-10.288,-1.316
6.454194,-3.99,-9.959,-0.761
6.464779,-3.92,-9.708,-0.574
6.475364,-3.78,-9.383,-0.802
6.485949,-3.15,-8.925,-0.579
6.496534,-2.8,-8.621,0.115
6.507119,-2.24,-8.426,0.22
6.517704,-1.26,-8.361,0.658
6.528289,-0.7,-8.434,1.072
6.538874,0.49,-8.345,1.372
6.549459,1.68,-8.357,1.441
6.560044,3.22,-8.99,1.4
6.570629,4.97,-8.965,1.262
6.581214,6.51,-9.047,1.319
6.591821,8.26,-9.712,1.06
6.602428,9.87,-10.352,0.662
6.613035,11.34,-10.762,0.164
6.623642,12.74,-11.715,-0.075
6.634249,14.21,-12.988,-0.513
6.644856,15.4,-14.16,-0.72
6.655463,16.8,-14.886,-0.635
6.66607,17.99,-15.681,-0.561
6.676677,19.25,-16.828,-0.906
6.687284,20.23,-17.83,-0.869
6.697891,21.49,-18.827,-1.258
6.708498,22.75,-19.578,-1.035
6.719138,23.8,-20.478,-0.768
6.729778,25.41,-21.078,-0.589
6.740418,26.67,-21.528,-0.455
6.751058,27.79,-21.998,-0.609
6.761698,28.84,-22.165,-1.278
6.772338,30.59,-22.335,-1.522
6.782978,32.27,-22.315,-1.234
6.793618,33.95,-22.068,-1.83
6.804258,35.84,-21.727,-2.552
6.814898,37.94,-21.22,-3.813
6.825538,39.27,-20.547,-4.405
6.836178,39.9,-19.805,-4.985
6.846814,40.39,-18.698,-5.216
6.85745,40.11,-17.9,-5.715
6.868086,39.9,-17.068,-5.995
6.878722,39.62,-15.726,-6.753
6.889358,39.76,-14.854,-7.666
6.899994,39.55,-13.703,-7.747
6.91063,39.69,-12.053,-8.238
6.921266,39.55,-10.597,-8.834
6.931902,39.2,-9.052,-9.131
6.942538,38.85,-7.689,-8.393
6.953174,38.5,-6.586,-8.198
6.96381,38.15,-5.642,-8.316
6.974446,37.31,-3.89,-8.576
6.985051,36.54,-2.325,-8.584
6.995656,35.49,-1.023,-8.71
7.006261,34.37,-0.034,-8.678
7.016866,33.67,0.445,-8.167
7.027471,32.62,0.992,-7.644
7.038076,31.22,1.345,-7.226
7.048681,29.89,1.406,-6.362
7.059286,28.35,1.256,-5.109
7.069891,26.46,1.188,-3.913
7.080496,24.64,1.407,-2.737
7.091101,22.96,1.342,-1.967
7.101706,20.93,1.281,-1.622
7.112311,18.97,1.922,-1.225
7.122927,17.43,1.873,-0.949
7.133543,15.82,1.504,-0.872
7.144159,13.93,1.727,-1.33
7.154775,12.53,1.958,-1.432
7.165391,11.83,1.898,-1.087
7.176007,10.85,1.881,-0.592
7.186623,10.08,1.658,-0.134
7.197239,10.15,1.391,0.174
7.207855,10.01,1.513,0.693
7.218471,9.52,1.699,0.442
7.229087,10.01,1.618,0.499
7.239703,10.01,1.557,0.843
7.250297,10.08,1.561,1.626
7.260891,10.43,1.184,2.554
7.271485,10.43,0.909,3.714
7.282079,10.85,0.045,4.984
7.292673,10.78,-0.595,5.795
7.303267,10.43,-1.066,6.849
7.313861,10.36,-1.832,7.567
7.324455,9.66,-2.189,7.575
7.335049,8.89,-2.558,7.652
7.345643,7.98,-2.789,7.754
7.356237,7.0,-3.6,8.321
7.366831,5.04,-4.074,8.593
7.377425,2.59,-4.893,8.804
7.388014,0.35,-5.035,9.206
7.398603,-2.38,-5.29,9.445
7.409192,-5.74,-5.891,9.623
7.419781,-9.24,-6.012,10.313
7.43037,-12.46,-6.641,11.055
7.440959,-15.4,-7.269,11.797
7.451548,-18.2,-7.707,13.07
7.462137,-20.16,-8.173,13.699
7.472726,-21.63,-8.692,13.821
7.483315,-22.61,-9.093,13.679
7.493904,-23.38,-9.75,13.776
7.504493,-24.64,-10.119,13.853
7.51505,-25.48,-10.642,14.401
7.525607,-25.69,-11.007,15.26
7.536164,-25.62,-11.482,15.532
7.546721,-24.99,-11.83,15.897
7.557278,-24.22,-12.025,15.792
7.567835,-23.17,-12.106,15.849
7.578392,-22.33,-12.281,14.823
7.588949,-21.21,-12.147,14.064
7.599506,-20.02,-12.143,13.639
7.610063,-20.09,-12.269,13.545
7.62062,-20.3,-11.924,13.606
7.631177,-20.37,-11.814,12.986
7.641734,-20.51,-11.587,12.102
7.652275,-20.93,-11.592,11.319
7.662816,-22.19,-11.024,10.922
7.673357,-23.66,-10.432,10.386
7.683898,-24.78,-9.593,9.255
7.694439,-26.18,-8.34,8.196
7.70498,-28.0,-6.974,7.3
7.715521,-30.1,-5.246,5.97
7.726062,-31.71,-3.746,5.523
7.736603,-32.69,-2.088,4.181
7.747144,-33.53,-0.287,3.645
7.757685,-34.02,1.408,3.305
7.768226,-34.72,2.733,3.041
7.778767,-34.93,3.95,2.189
7.789273,-34.86,5.268,1.569
7.799779,-34.51,5.847,1.102
7.810285,-34.44,6.492,1.074
7.820791,-34.3,7.1,1.252
7.831297,-34.09,7.38,0.875
7.841803,-33.32,7.242,0.851
7.852309,-32.41,7.344,1.082
7.862815,-31.43,7.052,1.528
7.873321,-30.52,6.541,2.006
7.883827,-28.98,5.56,2.331
7.894333,-28.07,5.341,2.363
7.904839,-26.67,4.327,2.469
7.915337,-25.27,3.609,2.911
7.925835,-23.38,3.139,2.757
7.936333,-20.86,2.936,2.295
7.946831,-17.64,2.372,1.058
7.957329,-14.7,1.703,0.016
7.967827,-11.9,0.957,-0.187
7.978325,-8.4,0.373,-0.503
7.988823,-5.6,-0.11,-0.588
7.999321,-2.8,-0.998,-0.389
8.009819,-0.84,-1.407,0.321
8.020317,1.82,-1.723,-0.304
8.030815,4.48,-1.415,-1.245
8.041267,6.79,-1.128,-2.473
8.051719,9.03,-1.258,-3.349
8.062171,11.06,-0.751,-3.402
8.072623,13.58,-0.26,-2.96
8.083075,16.03,0.093,-2.542
8.093527,18.13,0.259,-1.873
8.103979,19.04,0.486,-1.549
8.114431,19.39,0.604,-0.604
8.124883,17.64,1.152,-0.081
8.135335,15.82,0.949,0.665
8.145787,14.0,1.083,1.115
8.156239,12.74,1.196,1.277
8.166691,11.9,1.578,2.34
8.177143,12.04,1.704,3.641
8.187595,13.02,2.588,3.868
8.198047,14.56,3.176,3.759
8.208499,15.96,4.355,3.114
8.218951,17.78,5.507,1.824
8.229403,19.25,6.35,0.267
8.239855,20.02,7.417,-0.54
8.250307,21.21,8.446,-1.141
8.260759,21.91,8.418,-1.785
8.271211,21.98,8.771,-2.576
8.281663,22.89,8.219,-2.673
8.292115,23.52,7.469,-2.45
8.302556,24.29,6.455,-2.345
8.312997,24.64,5.287,-2.977
8.323438,24.71,3.974,-2.782
8.333879,24.43,2.794,-2.137
8.34432,23.73,0.868,-1.695
8.354761,22.75,-0.544,-0.949
8.365202,20.58,-2.088,-0.653
8.375643,18.41,-3.508,-0.263
8.386084,16.03,-4.541,0.763
8.396525,14.14,-5.571,1.363
8.406966,12.18,-6.557,2.114
8.417407,10.5,-7.388,2.393
8.427848,8.68,-8.154,3.111
8.438256,6.72,-8.101,3.618
8.448664,5.6,-9.046,3.736
8.459072,4.9,-8.884,3.622
8.46948,4.41,-9.31,3.618
8.479888,4.41,-9.533,4.077
8.490296,5.04,-9.642,4.697
8.500704,5.88,-9.687,5.755
8.511112,7.42,-9.613,6.55
8.52152,9.38,-9.435,7.15
8.531928,11.27,-8.332,7.345
8.542336,13.3,-7.221,6.688
8.552744,15.54,-5.883,6.355
8.563152,16.94,-4.533,5.953
8.573534,18.62,-3.024,4.656
8.583916,19.74,-1.735,3.39
8.594298,20.51,-0.677,2.226
8.60468,21.07,-0.004,1.634
8.615062,20.51,0.536,1.8
8.625444,19.67,1.237,1.853
8.635826,18.48,1.574,1.557
8.646208,16.87,1.286,1.577
8.65659,15.47,0.929,1.585
8.666972,13.58,0.625,2.1
8.677354,12.25,0.422,2.847
8.687736,10.85,0.061,3.28
8.698118,9.24,-0.158,3.313
8.708531,7.42,-0.158,3.313
8.718944,5.6,-0.77,3.56
8.729357,3.43,-1.098,3.005
8.73977,1.33,-0.924,2.822
8.750183,-0.56,-1.094,2.579
8.760596,-2.52,-1.216,2.06
8.771009,-4.41,-1.391,1.034
8.781422,-6.3,-1.967,-0.134
8.791835,-8.12,-2.145,-0.734
8.802248,-10.08,-2.587,-1.451
8.812661,-12.04,-3.098,-2.181
8.823074,-13.93,-3.67,-2.566
8.833486,-15.05,-3.905,-3.248
8.843898,-16.03,-4.307,-3.389
8.85431,-16.94,-4.55,-3.219
8.864722,-18.69,-4.684,-2.461
8.875134,-21.07,-4.814,-2.128
8.885546,-23.1,-4.627,-2.38
8.895958,-25.2,-4.582,-2.23
8.90637,-28.42,-3.978,-1.625
8.916782,-31.36,-2.968,-1.305
8.927194,-33.6,-2.243,-1.391
8.937606,-35.49,-1.123,-1.691
8.948018,-37.38,-0.495,-1.225
8.958432,-38.5,0.758,0.134
8.968846,-40.04,1.724,1.512
8.97926,-41.09,2.437,2.704
8.989674,-41.65,2.932,3.929
9.000088,-42.0,3.439,5.084
9.010502,-41.58,3.508,6.305
9.020916,-40.88,3.971,7.311
9.03133,-39.76,4.137,7.98
9.041744,-38.64,3.995,8.381
9.052158,-37.66,3.602,8.596
9.062572,-36.26,3.034,8.994
9.072986,-34.93,2.402,8.953
9.0834,-33.46,1.692,8.544
9.093838,-31.64,1.331,7.769
9.104276,-29.75,0.05,6.975
9.114714,-28.42,-0.887,6.241
9.125152,-27.51,-1.719,5.312
9.13559,-26.53,-2.055,4.4
9.146028,-26.11,-2.976,3.171
9.156466,-25.76,-3.706,2.474
9.166904,-25.55,-4.229,1.813
9.177342,-25.9,-4.067,1.7
9.18778,-25.62,-4.444,1.42
9.198218,-25.2,-4.939,1.404
9.208656,-24.43,-5.121,1.229
9.219092,-23.66,-5.271,1.274
9.229528,-22.4,-4.756,1.578
9.239964,-21.07,-4.517,1.833
9.2504,-19.25,-4.448,1.846
9.260836,-17.57,-4.16,1.825
9.271272,-15.89,-3.584,1.785
9.281708,-14.21,-3.219,2.133
9.292144,-12.88,-2.538,1.898
9.30258,-12.11,-2.202,1.602
9.313016,-11.41,-1.893,1.87
9.323452,-10.85,-1.776,1.606
9.333888,-10.57,-1.589,1.355
9.344324,-10.78,-1.107,1.44
9.354789,-11.2,-1.273,1.979
9.365254,-11.13,-1.739,2.608
9.375719,-11.27,-1.983,2.778
9.386184,-11.62,-2.514,2.969
9.396649,-11.76,-3.166,3.849
9.407114,-12.39,-3.722,4.177
9.417579,-12.74,-3.985,4.06
9.428044,-12.74,-4.334,4.425
9.438509,-12.32,-4.955,4.315
9.448974,-11.62,-5.401,4.023
9.459439,-10.57,-5.96,3.569
9.469904,-9.17,-5.559,3.711
9.480418,-7.35,-6.09,3.902
9.490932,-5.25,-6.37,3.071
9.501446,-3.64,-6.423,2.564
9.51196,-1.75,-6.301,1.874
9.522474,0.28,-6.431,0.998
9.532988,1.75,-6.297,0.24
9.543502,3.36,-6.549,-1.155
9.554016,4.06,-6.115,-2.002
9.56453,3.36,-6.322,-3.247
9.575044,2.03,-6.501,-3.847
9.585558,0.63,-6.055,-3.555
9.596072,-1.33,-5.791,-4.646
9.60661,-3.71,-5.576,-5.461
9.617148,-5.81,-5.07,-5.514
9.627686,-7.21,-4.944,-5.421
9.638224,-8.75,-4.705,-5.165
9.648762,-10.29,-4.291,-5.092
9.6593,-11.62,-3.35,-4.784
9.669838,-11.9,-3.228,-4.265
9.680376,-11.83,-2.632,-4.018
9.690914,-12.46,-2.425,-3.982
9.701452,-12.39,-1.558,-3.26
9.71199,-12.18,-1.266,-2.498
9.722528,-11.48,-0.767,-1.699
9.733066,-10.92,-0.483,-1.293
9.743616,-10.36,-0.142,-0.807
9.754166,-9.66,0.045,0.15
9.764716,-9.38,0.45,1.075
9.775266,-9.17,0.823,1.78
9.785816,-9.45,0.759,2.55
9.796366,-9.73,0.459,2.64
9.806916,-10.15,0.349,3.26
9.817466,-11.2,0.106,3.431
9.828016,-12.32,-0.413,3.552
9.838566,-13.58,-0.677,3.435
9.849116,-14.42,-1.046,3.512
9.859666,-15.12,-1.828,3.516
9.870216,-15.19,-2.607,3.094
9.880801,-15.47,-2.952,3.034
9.891386,-15.68,-3.394,3.524
9.901971,-15.68,-3.973,3.991
9.912556,-15.26,-4.14,4.53
9.923141,-14.56,-4.902,4.822
9.933726,-13.72,-5.182,5.199
9.944311,-13.09,-5.563,5.345
9.954896,-12.6,-5.798,5.872
9.965481,-11.69,-5.753,6.022
9.976066,-10.64,-5.327,6.026
9.986651,-9.52,-5.246,5.97
9.997236,-8.47,-4.727,5.848
10.00782,-7.49,-4.415,5.69
10.018404,-6.72,-4.379,5.483
10.028988,-5.81,-4.058,5.682
10.039572,-5.32,-3.685,5.179
10.050156,-4.83,-3.369,4.595
10.06074,-4.48,-3.341,4.031
10.071324,-4.41,-3.191,3.987
10.081908,-4.27,-3.698,4.039
10.092492,-4.34,-3.45,3.443
10.103076,-4.62,-3.426,3.305
10.11366,-4.48,-3.434,2.948
10.124244,-4.69,-3.665,3.05
10.134828,-4.55,-3.037,2.308
10.145409,-4.69,-3.163,2.214
10.15599,-4.9,-2.907,1.975
10.166571,-4.83,-2.964,1.894
10.177152,-4.97,-2.307,1.797
10.187733,-4.83,-2.133,1.614
10.198314,-4.97,-1.626,1.561
10.208895,-4.76,-1.455,1.805
10.219476,-4.62,-1.228,2.129
10.230057,-4.55,-1.058,2.372
10.240638,-4.34,-0.774,2.778
10.251219,-4.41,-0.373,2.92
10.2618,-3.99,-0.551,3.528
10.272381,-3.57,-0.494,3.609
10.282944,-3.22,-0.766,3.135
10.293507,-2.73,-0.592,2.952
10.30407,-1.89,-0.454,2.976
10.314633,-1.54,-0.357,2.425
10.325196,-0.7,-0.454,1.768
10.335759,0.42,-0.28,1.586
10.346322,0.98,-0.88,1.764
10.356885,1.68,-0.835,1.914
10.367448,2.45,-0.993,1.602
10.378011,3.5,-0.9,1.476
10.388574,3.85,-0.819,1.419
10.399137,5.04,-0.928,0.831
10.4097,5.53,-1.168,0.576
10.420249,5.53,-1.18,0.645
10.430798,5.39,-1.63,0.779
10.441347,5.6,-1.703,1.192
10.451896,5.53,-1.78,0.823
10.462445,5.25,-1.942,0.937
10.472994,5.53,-2.319,0.657
10.483543,5.11,-2.38,1.002
10.494092,4.97,-2.323,1.083
10.504641,4.97,-2.336,1.152
10.51519,4.48,-2.104,1.051
10.525739,3.99,-2.263,0.738
10.536288,3.92,-1.93,0.868
10.546857,3.57,-1.861,0.88
10.557426,3.5,-2.206,0.819
10.567995,2.94,-1.95,0.58
10.578564,2.73,-1.65,0.491
10.589133,2.66,-1.387,0.608
10.599702,2.45,-1.273,0.771
10.610271,2.52,-1.318,0.621
10.62084,2.31,-0.977,1.107
10.631409,2.24,-0.851,1.2
10.641978,2.1,-0.742,0.58
10.652547,1.82,-0.86,0.844
10.663116,1.68,-0.482,1.123
10.673685,2.03,-0.819,1.419
10.684271,1.89,-1.107,1.44
10.694857,1.82,-1.095,1.371
10.705443,1.68,-1.383,1.391
10.716029,1.82,-1.362,1.679
10.726615,1.54,-1.431,1.667
10.737201,1.96,-1.67,1.411
10.747787,2.17,-1.934,1.294
10.758373,2.38,-2.315,1.44
10.768959,2.03,-2.307,1.797
10.779545,2.24,-3.13,2.433
10.790131,2.31,-3.382,2.247
10.800717,2.38,-3.232,2.202
10.811316,2.59,-3.163,2.214
10.821915,2.8,-3.24,1.845
10.832514,3.22,-3.041,1.525
10.843113,3.43,-2.039,1.488
10.853712,3.43,-2.198,1.176
10.864311,3.57,-2.153,1.326
10.87491,4.06,-1.602,1.424
10.885509,3.92,-1.123,1.934
10.896108,3.78,-1.309,2.186
10.906707,3.92,-0.884,2.19
10.917306,3.85,-0.965,2.247
10.927905,3.85,-1.139,2.429
10.938504,3.85,-1.103,2.222
10.949105,3.85,-1.265,2.336
10.959706,3.85,-1.309,2.186
10.970307,3.92,-1.666,2.194
10.980908,3.85,-1.735,2.182
10.991509,3.64,-2.469,1.91
11.00211,3.43,-2.538,1.898
11.012711,3.43,-2.964,1.894
11.023312,3.08,-3.13,1.225
11.033913,2.73,-3.211,1.282
11.044514,2.73,-2.915,1.618
11.055115,2.45,-2.412,1.991
11.065716,2.52,-2.319,1.866
11.076268,2.52,-2.327,1.509
11.08682,2.24,-2.121,1.545
11.097372,1.82,-1.638,1.63
11.107924,2.24,-1.65,1.699
11.118476,2.38,-1.67,1.411
11.129028,2.52,-1.415,1.172
11.13958,2.59,-1.334,1.115
11.150132,2.8,-1.415,1.172
11.160684,3.01,-1.415,1.172
11.171236,3.08,-1.577,1.286
11.181788,3.36,-1.358,1.253
11.19234,3.71,-1.164,1.359
11.202892,3.57,-1.541,1.079
11.213444,3.57,-1.598,0.998
11.223949,3.64,-1.334,1.115
11.234454,3.43,-1.358,1.253
11.244959,3.43,-1.885,1.018
11.255464,3.29,-2.011,0.925
11.265969,3.15,-2.149,0.901
11.276474,2.8,-2.044,0.706
11.286979,2.87,-1.999,0.856
11.297484,2.94,-2.157,0.544
11.307989,2.8,-1.881,0.592
11.318494,2.45,-1.914,0.373
11.328999,2.1,-2.226,0.532
11.339504,2.38,-2.932,0.905
11.349978,2.17,-3.406,1.176
11.360452,2.45,-4.132,1.262
11.370926,2.59,-5.373,1.043
11.3814,2.94,-6.889,0.775
11.391874,3.57,-7.854,0.605
11.402348,3.92,-9.245,0.431
11.412822,4.41,-10.738,0.026
11.423296,4.48,-12.733,-0.752
11.43377,4.76,-15.6,-1.827
11.444244,5.11,-18.605,-2.925
11.454718,5.74,-23.694,-5.102
11.465192,5.81,-30.92,-7.656
11.47566,6.02,-39.16,-10.104
11.486128,6.23,-49.331,-11.684
11.496596,6.23,-60.348,-12.489
11.507064,5.67,-72.562,-13.363
11.517532,4.06,-86.073,-14.537
11.528,2.38,-101.008,-16.105
11.538468,0.42,-116.815,-17.968
11.548936,-1.12,-133.992,-19.717
11.559404,-2.66,-151.55,-20.112
11.569872,-4.55,-169.047,-19.643
11.58034,-6.3,-185.393,-19.256
11.590808,-8.12,-198.961,-20.511
11.601272,-9.73,-209.898,-22.581
11.611736,-11.41,-218.304,-24.49
11.6222,-13.02,-224.666,-25.896
11.632664,-14.07,-229.995,-25.912
11.643128,-14.7,-233.871,-26.098
11.653592,-14.56,-236.406,-25.834
11.664056,-13.79,-236.957,-24.723
11.67452,-12.53,-234.99,-23.381
11.684984,-11.41,-230.886,-22.87
11.695448,-9.8,-225.643,-23.581
11.705912,-7.84,-218.916,-25.451
11.716376,-5.46,-211.419,-26.048
11.72684,-2.59,-202.218,-25.421
11.737295,-0.14,-192.603,-23.512
11.74775,2.03,-182.66,-22.257
11.758205,4.34,-171.704,-22.315
11.76866,6.09,-159.782,-22.203
11.779115,7.77,-147.807,-21.584
11.78957,8.61,-136.011,-20.357
11.800025,8.68,-123.899,-18.506
11.81048,8.4,-111.466,-16.456
11.820935,8.26,-99.086,-14.913
11.83139,7.49,-87.379,-13.986
11.841845,7.98,-76.807,-13.472
11.8523,8.26,-66.889,-12.079
11.862727,8.75,-57.675,-9.104
11.873154,9.17,-49.816,-5.301
11.883581,9.8,-42.736,-1.92
11.894008,9.8,-36.694,0.496
11.904435,9.94,-31.057,1.987
11.914862,9.94,-26.312,2.895
11.925289,10.01,-22.253,3.255
11.935716,10.5,-19.476,2.821
11.946143,10.5,-17.679,2.711
11.95657,10.64,-16.751,3.088
11.966997,11.2,-16.167,3.404
11.977424,11.69,-16.082,2.922
11.987851,11.76,-16.463,1.859
11.998275,12.25,-16.925,0.854
12.008699,12.25,-16.84,0.371
12.019123,12.39,-16.966,0.278
12.029547,12.39,-16.735,0.177
12.039971,12.46,-16.175,0.631
12.050395,12.39,-15.113,0.249
12.060819,11.62,-14.42,-0.055
12.071243,10.78,-13.604,0.16
12.081667,9.52,-12.919,0.707
12.092091,8.12,-12.627,1.47
12.102515,6.93,-11.707,1.49
12.112939,6.23,-11.285,0.711
12.123363,5.39,-10.608,-0.307
12.133819,4.76,-10.028,-0.773
12.144275,4.27,-9.489,-0.607
12.154731,3.78,-9.367,-0.088
12.165187,3.22,-9.063,0.605
12.175643,2.8,-8.702,1.38
12.186099,2.45,-8.381,1.579
12.196555,2.31,-7.83,1.676
12.207011,2.1,-7.153,1.866
12.217467,1.96,-6.82,1.996
12.227923,1.68,-6.431,2.207
12.238379,1.68,-6.548,2.47
12.248837,1.82,-6.678,2.803
12.259295,2.03,-7.043,3.663
12.269753,2.24,-7.189,4.49
12.280211,2.66,-7.757,4.887
12.290669,2.94,-7.805,5.163
12.301127,3.15,-7.12,4.502
12.311585,3.64,-6.686,3.654
12.322043,3.5,-6.577,3.034
12.332501,3.22,-5.924,3.362
12.342959,2.8,-5.96,3.569
12.353417,2.52,-5.072,3.37
12.363875,2.17,-3.86,2.944
12.374333,1.68,-2.51,2.543
12.384813,1.68,-1.541,2.287
12.395293,1.47,-0.466,1.837
12.405773,1.4,0.467,1.788
12.416253,1.12,0.738,2.263
12.426733,1.05,0.941,2.725
12.437213,0.98,2.004,3.552
12.447693,0.91,2.312,3.819
12.458173,0.91,2.803,4.261
12.468653,0.63,3.066,4.379
12.479133,0.91,3.561,4.395
12.489613,0.7,4.4,4.472
12.500093,0.63,5.037,4.087
12.510572,0.7,6.055,3.555
12.521051,1.12,7.303,2.923
12.53153,0.91,8.942,2.501
12.542009,0.63,11.318,1.925
12.552488,0.14,15.973,1.324
12.562967,0.0,21.747,0.423
12.573446,0.35,29.399,-0.645
12.583925,0.7,40.213,-1.51
12.594404,1.33,53.343,-2.607
12.604883,2.24,68.513,-2.775
12.615362,2.52,85.556,-1.476
12.625841,2.94,102.948,1.875
12.63632,3.57,120.317,6.573
12.646799,3.36,135.937,12.312
12.657276,3.29,150.633,17.249
12.667753,3.15,165.013,21.562
12.67823,2.59,177.819,24.317
12.688707,2.17,188.942,26.136
12.699184,1.82,198.094,28.248
12.709661,1.89,205.434,30.964
12.720138,2.59,210.317,33.104
12.730615,3.71,213.869,34.726
12.741092,5.11,216.12,35.265
12.751569,6.44,215.568,35.167
12.762046,7.35,213.216,34.397
12.772523,7.7,208.995,34.15
12.783011,8.47,203.318,34.5
12.793499,8.89,196.351,33.698
12.803987,9.66,188.428,31.874
12.814475,9.66,180.143,29.276
12.824963,9.87,171.38,27.376
12.835451,9.8,161.364,26.534
12.845939,9.59,152.204,26.482
12.856427,8.4,143.542,26.021
12.866915,7.14,136.267,24.952
12.877403,6.3,129.317,23.655
12.887891,5.46,122.963,22.606
12.898379,4.9,116.961,23.182
12.908889,5.04,111.147,24.716
12.919399,4.48,105.514,25.215
12.929909,4.34,100.291,23.797
12.940419,4.41,94.338,20.473
12.950929,4.69,87.923,16.143
12.961439,5.53,80.777,12.324
12.971949,6.09,73.737,9.519
12.982459,7.07,66.247,6.848
12.992969,7.91,59.017,4.72
13.003479,8.68,52.476,2.714
13.013989,8.82,46.268,0.837
13.024499,8.61,41.02,-0.444
13.035033,8.33,36.422,-0.97
13.045567,7.49,33.149,-1.76
13.056101,6.37,30.704,-2.405
13.066635,6.09,28.964,-3.422
13.077169,5.53,28.174,-3.775
13.087703,5.67,27.46,-3.759
13.098237,5.46,26.876,-2.867
13.108771,4.97,26.45,-1.662
13.119305,5.04,25.737,-1.646
13.129839,4.69,24.893,-1.297
13.140373,4.76,24.095,-0.798
13.150907,4.62,22.562,-0.571
13.161441,3.85,21.455,-0.34
13.171988,3.43,20.214,-0.558
13.182535,2.8,18.499,-0.505
13.193082,2.52,16.727,-0.534
13.203629,2.24,15.344,-0.351
13.214176,1.89,13.653,-0.436
13.224723,1.61,12.205,-0.691
13.23527,1.47,10.766,-0.589
13.245817,1.19,9.128,-0.168
13.256364,0.98,7.185,-0.439
13.266911,0.63,5.945,-0.658
13.277458,0.42,4.554,-0.832
13.288005,0.77,3.402,-0.751
13.298532,0.63,2.538,-0.69
13.309059,0.56,1.598,-0.998
13.319586,0.91,0.616,-0.673
13.330113,0.7,-0.041,-0.576
13.34064,1.12,-0.475,-0.937
13.351167,1.12,-0.661,-0.685
13.361694,0.84,-0.698,-0.478
13.372221,0.91,-0.803,-0.284
13.382748,0.77,-0.596,-0.247
13.393275,0.77,-0.564,-0.028
13.403802,0.35,-0.774,0.361
13.414329,0.28,-0.584,0.892
13.424856,0.49,-1.135,0.795
13.43539,0.63,-1.042,0.669
13.445924,0.42,-0.993,0.393
13.456458,0.42,-0.945,0.118
13.466992,0.63,-1.095,0.162
13.477526,1.19,-1.196,-0.069
13.48806,1.54,-1.61,-0.142
13.498594,1.89,-1.756,-0.523
13.509128,2.03,-2.291,0.094
13.519662,2.31,-2.64,0.459
13.530196,2.52,-2.919,0.836
13.54073,2.87,-3.394,1.107
13.551264,3.29,-4.014,0.998
13.561779,3.64,-4.221,0.962
13.572294,3.78,-4.464,1.132
13.582809,3.71,-5.04,1.173
13.593324,3.5,-4.975,1.611
13.603839,3.71,-4.987,1.679
13.614354,3.36,-4.996,1.323
13.624869,3.29,-5.109,1.16
13.635384,2.73,-5.166,1.079
13.645899,2.52,-4.764,1.221
13.656414,2.17,-4.809,1.071
13.666929,1.82,-4.395,1.144
13.677444,1.75,-4.282,1.306
13.687959,1.96,-3.625,1.209
13.698488,1.96,-3.39,0.682
13.709017,1.89,-2.632,0.815
13.719546,1.82,-2.194,0.75
13.730075,1.82,-2.019,0.568
13.740604,1.89,-1.435,0.884
13.751133,1.89,-0.985,0.75
13.761662,2.17,-0.949,0.544
13.772191,2.03,-1.111,0.657
13.78272,2.1,-0.722,0.868
13.793249,2.1,-0.632,1.168
13.803778,2.1,-0.422,0.779
13.814307,1.68,-0.758,1.075
13.824835,1.82,-0.458,0.985
13.835363,2.03,-0.941,0.9
13.845891,2.24,-0.977,1.107
13.856419,1.96,-0.985,0.75
13.866947,2.03,-0.92,1.188
13.877475,2.03,-1.415,1.172
13.888003,2.17,-1.31,0.977
13.898531,1.96,-1.585,0.929
13.909059,1.82,-1.444,0.527
13.919587,1.75,-1.537,0.653
13.930115,1.47,-1.541,1.079
13.940643,1.33,-1.756,0.686
13.951171,1.4,-1.675,0.629
13.961699,1.61,-1.419,0.389
13.972227,1.54,-1.452,0.171
13.982755,1.26,-1.638,0.422
13.993283,1.12,-1.496,0.02
14.003811,1.12,-1.496,0.02
14.014339,0.91,-1.695,0.341
14.024867,1.19,-2.092,0.982
14.035395,0.77,-2.238,1.809
14.045923,0.98,-2.1,1.833
14.056451,1.05,-1.991,1.213
14.066979,1.19,-1.885,1.018
14.077507,1.4,-1.987,0.787
14.088035,1.4,-2.108,1.476
14.098534,1.75,-2.429,1.278
14.109033,1.89,-1.999,0.856
14.119532,1.96,-2.206,0.819
14.130031,2.1,-2.06,1.201
14.14053,1.82,-1.76,1.111
14.151029,1.54,-1.735,0.973
14.161528,1.96,-2.129,1.188
14.172027,1.96,-1.727,1.33
14.182526,1.96,-1.715,1.261
14.193025,1.89,-1.991,1.213
14.203524,1.75,-1.577,1.286
14.214023,1.89,-1.549,1.93
14.224522,1.68,-1.228,2.129
14.235014,1.54,-1.431,1.667
14.245506,1.75,-1.926,1.651
14.255998,1.26,-1.756,1.894
14.26649,0.91,-1.269,1.553
14.276982,0.91,-1.301,1.334
14.287474,0.77,-1.614,1.492
14.297966,0.56,-1.168,1.784
14.308458,0.56,-1.537,1.861
14.31895,0.56,-1.423,2.024
14.329442,0.98,-1.192,1.922
14.339934,1.47,-1.005,1.671
14.350426,1.82,-1.139,1.221
14.360919,2.24,-0.791,0.856
14.371412,2.17,-0.547,0.685
14.381905,2.87,-0.997,0.819
14.392398,3.01,-0.677,1.018
14.402891,3.08,-0.434,0.848
14.413384,3.36,-0.446,0.916
14.423877,3.57,-0.17,0.965
14.43437,4.2,0.397,0.568
14.444863,3.57,0.71,0.409
14.455356,3.5,0.604,0.604
14.465849,3.57,0.848,0.434
14.476342,3.71,0.377,0.28
14.486835,3.92,0.231,-0.101
14.497328,4.34,0.588,-0.11
14.507845,4.06,0.154,-0.47
14.518362,3.36,-0.077,-0.369
14.528879,3.64,-0.296,-0.337
14.539396,3.29,-0.892,-0.584
14.549913,3.29,-0.916,-0.446
14.56043,3.29,-0.953,-0.239
14.570947,3.22,-0.734,-0.272
14.581464,2.8,-1.265,-0.081
14.591981,2.8,-1.358,0.045
14.602498,2.8,-1.184,-0.138
14.613015,3.01,-1.091,-0.263
14.623523,3.22,-0.714,0.016
14.634031,3.15,-0.912,0.337
14.644539,3.15,-0.592,0.535
14.655047,3.08,-0.661,0.523
14.665555,2.94,-1.05,0.312
14.676063,3.15,-0.928,0.831
14.686571,2.87,-1.103,1.014
14.697079,2.94,-1.168,0.576
14.707587,2.94,-1.269,0.345
14.718095,3.08,-1.731,0.548
14.728603,3.15,-2.113,0.694
14.739111,3.01,-2.283,0.45
14.749619,2.8,-2.413,0.783
14.760127,2.8,-2.319,0.657
14.770635,2.73,-2.392,1.071
14.781134,2.8,-2.449,0.99
14.791633,2.8,-2.749,1.079
14.802132,2.8,-2.692,1.16
14.812631,2.38,-2.53,1.047
14.82313,2.24,-2.23,0.957
14.833629,2.31,-2.185,1.107
14.844128,2.17,-2.486,1.197
14.854627,1.89,-2.623,1.172
14.865126,1.68,-2.879,1.412
14.875625,1.75,-2.623,1.172
14.886124,1.82,-3.163,1.006
14.89663,2.03,-3.151,0.937
14.907136,1.75,-3.077,1.732
14.917642,2.17,-4.262,1.594
14.928148,2.52,-5.352,1.331
14.938654,2.66,-5.827,1.603
14.94916,2.73,-6.285,1.38
14.959666,2.94,-6.549,1.262
14.970172,3.01,-7.153,0.658
14.980678,3.22,-7.21,0.577
14.991184,3.36,-7.785,0.617
15.00169,3.78,-7.863,0.248
15.012196,3.71,-8.507,0.277
15.022702,3.99,-8.588,0.334
15.033222,4.06,-9.176,0.443
15.043742,4.13,-9.558,0.589
15.054262,3.78,-10.008,0.723
15.064782,4.13,-10.823,0.508
15.075302,4.2,-10.948,0.415
15.085822,4.48,-11.305,0.423
15.096342,4.41,-11.545,0.168
15.106862,4.9,-11.97,0.164
15.117382,4.83,-12.295,0.391
15.127902,4.83,-12.757,0.594
15.138422,4.69,-12.538,0.561
15.148942,4.69,-12.862,0.788
15.159453,4.41,-12.895,0.569
15.169964,3.85,-13.191,0.233
15.180475,4.13,-13.041,0.188
15.190986,3.78,-13.235,0.083
15.201497,3.36,-13.584,0.448
15.212008,3.36,-13.402,0.622
15.222519,3.5,-12.538,0.561
15.23303,3.36,-12.007,0.371
15.243541,3.57,-11.155,0.379
15.254052,3.78,-10.681,0.107
15.264563,3.71,-9.898,0.103
15.275074,3.71,-9.083,0.318
15.285585,3.5,-8.67,0.39
15.29609,3.43,-7.992,0.581
15.306595,3.5,-7.084,0.67
15.3171,3.29,-6.5,0.986
15.327605,3.08,-6.086,1.059
15.33811,3.01,-5.385,1.112
15.348615,2.8,-4.732,1.44
15.35912,2.73,-3.941,1.793
15.369625,2.45,-3.791,1.748
15.38013,2.24,-3.232,2.202
15.390635,2.45,-2.562,2.036
15.40114,2.24,-2.38,2.21
15.411645,1.75,-1.841,2.376
15.42215,1.61,-1.419,2.806
15.432655,1.61,-1.463,2.656
15.443136,1.33,-1.427,2.449
15.453617,1.4,-1.403,2.312
15.464098,1.47,-1.784,2.458
15.474579,0.91,-1.991,2.421
15.48506,0.98,-1.93,2.076
15.495541,0.98,-2.047,2.34
15.506022,0.91,-2.104,2.259
15.516503,0.84,-1.897,2.295
15.526984,1.26,-2.238,1.809
15.537465,0.84,-2.271,1.59
15.547946,0.77,-2.214,1.671
15.558449,0.63,-2.056,1.983
15.568952,0.84,-1.861,2.089
15.579455,0.63,-1.873,2.158
15.589958,0.77,-1.857,1.663
15.600461,0.49,-1.756,1.894
15.610964,0.7,-1.926,1.651
15.621467,0.63,-1.309,2.186
15.63197,0.42,-1.403,2.312
15.642473,0.35,-1.423,2.024
15.652976,0.21,-1.143,1.646
15.663479,0.07,-0.799,1.707
15.673982,-0.21,-0.88,1.764
15.684473,-0.42,-0.636,1.594
15.694964,-0.77,-0.304,1.723
15.705455,-0.91,-0.073,1.622
15.715946,-0.91,0.134,1.658
15.726437,-1.12,0.381,1.062
15.736928,-1.19,0.418,0.856
15.747419,-1.19,-0.044,1.058
15.75791,-1.05,0.321,1.407
15.768401,-1.26,0.134,1.658
15.778892,-1.26,-0.267,1.517
15.789383,-1.12,-0.454,1.768
15.799874,-0.84,-0.559,1.963
15.810365,-0.77,-1.046,2.303
15.820867,-0.63,-0.953,2.178
15.831369,-0.63,-1.066,2.015
15.841871,-0.49,-0.799,1.707
15.852373,-0.28,-0.843,1.557
15.862875,-0.35,-1.151,1.29
15.873377,-0.63,-1.014,1.314
15.883879,-0.56,-0.689,1.087
15.894381,-0.63,-0.653,0.88
15.904883,-0.63,-0.782,1.213
15.915385,-0.77,-0.45,1.342
15.925887,-0.84,0.029,1.853
15.936389,-0.84,-0.142,1.61
15.946868,-1.26,-0.255,1.448
15.957347,-1.4,-0.081,1.265
15.967826,-1.61,-0.154,1.679
15.978305,-1.05,-0.02,2.129
15.988784,-0.98,-0.178,1.817
15.999263,-1.33,-0.636,1.594
16.009742,-1.26,-0.661,1.732
16.020221,-1.75,-0.584,2.101
16.0307,-1.75,-0.511,1.687
16.041179,-1.33,-0.543,1.468
16.051658,-1.33,-0.831,1.488
16.062137,-1.68,-0.855,1.626
16.072616,-1.96,-1.054,1.947
16.08307,-1.82,-0.827,2.271
16.093524,-1.75,-1.139,2.429
16.103978,-1.82,-1.403,2.312
16.114432,-1.4,-1.334,2.324
16.124886,-1.47,-1.362,1.679
16.13534,-1.54,-1.512,1.724
16.145794,-1.26,-1.764,1.537
16.156248,-1.19,-1.455,1.805
16.166702,-1.26,-1.687,1.906
16.177156,-1.19,-1.354,2.036
16.18761,-1.12,-1.354,2.036
16.198064,-1.05,-1.654,2.125
16.208518,-1.19,-1.549,1.93
16.218969,-1.47,-1.411,1.955
16.22942,-1.61,-1.78,2.032
16.239871,-1.68,-1.459,2.23
16.250322,-1.68,-1.76,2.32
16.260773,-1.75,-1.76,2.32
16.271224,-2.17,-1.646,2.482
16.281675,-2.31,-1.841,2.376
16.292126,-2.17,-1.76,2.32
16.302577,-2.1,-1.634,2.413
16.313028,-1.96,-1.504,2.08
16.323479,-1.82,-1.549,1.93
16.33393,-1.82,-1.277,2.405
16.344375,-2.17,-0.953,2.178
16.35482,-1.82,-0.827,2.271
16.365265,-1.96,-0.79,2.064
16.37571,-1.96,-0.847,1.983
16.386155,-2.03,-0.799,1.707
16.3966,-1.96,-0.49,1.975
16.407045,-1.89,-0.673,1.801
16.41749,-1.68,-0.661,1.732
16.427935,-1.68,-0.673,1.801
16.43838,-1.4,-0.409,1.918
16.448825,-1.61,-0.34,1.93
16.45927,-1.75,-0.235,1.736
16.469715,-1.82,-0.353,1.999
16.480191,-1.89,-0.511,1.687
16.490667,-1.61,-0.669,1.375
16.501143,-1.12,-0.693,1.513
16.511619,-1.05,-0.661,1.732
16.522095,-1.05,-0.949,1.752
16.532571,-1.12,-0.843,1.557
16.543047,-0.91,-0.762,1.5
16.553523,-0.91,-0.657,1.306
16.563999,-1.12,-0.62,1.099
16.574475,-1.19,-0.503,0.835
16.584951,-1.05,-0.389,0.998
16.595427,-1.12,-0.158,0.896
16.605901,-0.91,0.243,1.038
16.616375,-0.91,0.106,1.014
16.626849,-0.84,0.442,0.718
16.637323,-0.91,0.511,0.73
16.647797,-1.12,0.475,0.937
16.658271,-0.7,0.633,1.249
16.668745,-0.42,0.183,1.383
16.679219,-0.49,0.183,1.383
16.689693,-0.42,0.195,1.314
16.700167,-0.21,0.138,1.233
16.710641,0.07,0.235,0.681
16.721115,0.35,0.341,0.487
16.731589,0.56,0.669,-0.166
16.742091,0.84,1.277,0.012
16.752593,1.05,1.2,-0.357
16.763095,1.26,1.626,-0.353
16.773597,1.26,2.145,-0.475
16.784099,1.33,2.559,-0.402
16.794601,1.54,2.697,-0.377
16.805103,1.4,3.066,-0.455
16.815605,1.33,3.422,-0.463
16.826107,1.26,3.479,-0.382
16.836609,1.12,3.422,-0.463
16.847111,1.05,3.471,-0.738
16.857613,1.26,3.435,-0.532
16.868115,1.26,3.438,-0.957
16.878648,1.05,3.451,-1.026
16.889181,0.98,3.438,-0.957
16.899714,1.26,3.301,-0.982
16.910247,1.33,3.199,-1.213
16.92078,1.33,3.28,-1.27
16.931313,1.26,3.325,-1.12
16.941846,1.19,3.232,-0.994
16.952379,0.98,3.564,-0.864
16.962912,1.54,3.301,-0.982
16.973445,1.75,3.232,-0.994
16.983978,2.1,3.268,-1.201
16.994511,2.03,3.236,-1.42
17.005043,2.59,2.599,-1.034
17.015575,2.59,2.944,-0.974
17.026107,2.45,2.806,-0.998
17.036639,2.66,2.838,-0.779
17.047171,2.52,2.932,-0.905
17.057703,2.66,3.07,-0.88
17.068235,2.66,2.851,-0.848
17.078767,3.08,3.102,-0.661
17.089299,3.08,3.057,-0.811
17.099831,3.08,2.599,-1.034
17.110363,2.38,2.976,-0.755
17.120895,2.45,2.697,-0.377
17.131427,2.8,2.721,-0.515
17.141942,3.15,2.603,-0.252
17.152457,2.66,2.04,-0.28
17.162972,2.31,1.74,-0.191
17.173487,1.61,1.703,0.016
17.184002,1.68,1.679,0.154
17.194517,1.68,1.403,0.105
17.205032,1.4,1.598,0.211
17.215547,1.33,1.748,0.166
17.226062,1.47,1.598,0.211
17.236577,1.75,1.411,0.462
17.247092,1.33,0.961,0.596
17.257607,1.05,0.904,0.515
17.268122,1.19,1.01,0.32
17.278637,1.33,0.823,0.572
17.289158,1.4,0.994,0.815
17.299679,1.26,0.742,0.628
17.3102,1.47,0.73,0.697
17.320721,1.33,1.144,0.77
17.331242,1.4,0.702,1.261
17.341763,1.33,0.45,1.075
17.352284,1.47,0.012,1.139
17.362805,1.82,-0.15,1.253
17.373326,1.82,-0.117,1.472
17.383847,1.75,-0.255,1.448
17.394368,1.4,-0.174,1.391
17.404889,1.54,-0.243,1.379
17.415436,1.54,-0.616,1.882
17.425983,1.47,-0.855,1.626
17.43653,1.33,-0.973,1.89
17.447077,1.12,-1.086,1.728
17.457624,1.4,-1.131,1.578
17.468171,1.26,-1.395,1.46
17.478718,1.61,-1.695,1.549
17.489265,1.68,-1.824,1.882
17.499812,1.61,-2.023,2.202
17.510359,1.33,-2.262,1.947
17.520906,1.61,-2.275,2.016
17.531453,1.61,-2.299,2.154
17.542014,1.68,-2.08,2.121
17.552575,1.89,-2.283,1.659
17.563136,2.24,-2.027,1.42
17.573697,2.45,-2.023,0.994
17.584258,2.52,-1.541,1.079
17.594819,2.52,-1.301,1.334
17.60538,2.59,-1.233,1.346
17.615941,2.73,-1.083,1.302
17.626502,2.73,-0.864,1.269
17.637063,2.38,-0.726,1.294
17.647624,2.24,-0.462,1.411
17.658185,1.96,-0.312,1.367
17.668746,2.38,-0.255,1.448
17.679307,2.03,-0.417,1.561
17.68988,2.24,-0.531,1.399
17.700453,1.89,-0.555,1.537
17.711026,2.03,-0.807,1.35
17.721599,1.89,-0.993,1.602
17.732172,1.96,-1.2,1.565
17.742745,1.54,-1.196,1.14
17.753318,1.89,-1.687,0.698
17.763891,1.82,-1.666,0.986
17.774464,1.96,-2.064,1.626
17.785037,1.61,-1.881,1.801
17.79561,1.68,-2.056,1.983
17.806183,2.03,-2.258,1.521
17.816738,1.75,-1.877,1.375
17.827293,1.68,-1.877,1.375
17.837848,2.38,-2.177,1.464
17.848403,2.52,-1.995,1.638
17.858958,3.08,-1.91,1.156
17.869513,3.22,-2.141,1.257
17.880068,3.22,-2.303,1.371
17.890623,3.22,-2.49,1.622
17.901178,3.22,-1.67,1.411
17.911733,3.36,-1.322,1.046
17.922288,3.36,-1.403,1.103
17.932843,3.08,-1.447,0.953
17.943398,2.94,-1.516,0.941
17.953953,2.66,-1.427,1.241
17.964509,2.66,-1.634,1.205
17.975065,2.73,-1.403,1.103
17.985621,2.73,-1.885,1.018
17.996177,2.24,-2.104,1.051
18.006733,2.24,-1.314,1.403
18.017289,2.45,-1.565,1.217
18.027845,2.1,-1.358,1.253
18.038401,1.96,-1.37,1.322
18.048957,1.61,-1.107,1.44
18.059513,1.68,-1.269,1.553
18.070069,1.47,-1.005,1.671
18.080625,1.47,-0.981,1.533
18.091176,1.47,-0.855,1.626
18.101727,1.61,-1.099,1.797
18.112278,1.54,-1.062,1.59
18.122829,1.33,-1.143,1.646
18.13338,1.47,-1.155,1.715
18.143931,1.47,-1.569,1.642
18.154482,1.4,-1.618,1.918
18.165033,1.54,-1.606,1.849
18.175584,1.33,-1.869,1.732
18.186135,1.47,-1.962,1.857
18.196686,1.61,-1.8,1.744
18.207237,1.68,-1.695,1.549
18.217754,1.54,-1.926,1.651
18.228271,1.33,-1.857,1.663
18.238788,1.68,-1.833,1.525
18.249305,1.47,-1.65,1.699
18.259822,1.26,-1.662,1.768
18.270339,1.05,-1.642,2.056
18.280856,0.77,-1.249,1.841
18.291373,0.77,-1.038,1.452
18.30189,0.84,-0.718,1.65
18.312407,0.98,-0.855,1.626
18.322924,1.05,-1.099,1.797
18.333441,1.19,-1.123,1.934
18.343958,1.47,-1.841,2.376
18.354456,1.19,-1.991,2.421
18.364954,1.19,-1.934,2.502
18.375452,1.33,-2.125,1.971
18.38595,1.47,-2.202,1.602
18.396448,1.82,-2.165,1.395
18.406946,1.75,-1.934,1.294
18.417444,1.89,-2.242,1.026
18.427942,2.24,-2.267,1.164
18.43844,2.17,-1.727,1.33
18.448938,2.17,-1.602,1.424
18.459436,2.17,-1.07,1.233
18.469934,2.1,-0.989,1.176
18.480402,1.82,-0.543,1.468
18.49087,1.89,-0.162,1.322
18.501338,1.54,-0.069,1.196
18.511806,1.68,-0.495,1.192
18.522274,1.61,-0.645,1.237
18.532742,1.61,-0.361,1.642
18.54321,1.26,-0.555,1.537
18.553678,1.33,-0.932,1.257
18.564146,1.4,-0.957,1.395
18.574614,0.77,-1.026,1.383
18.585082,0.98,-1.058,1.164
18.59555,1.05,-0.997,0.819
18.606018,1.19,-1.103,1.014
18.616486,1.19,-1.358,1.253
18.626954,0.98,-1.407,1.529
18.637428,0.84,-1.038,1.452
18.647902,0.84,-1.107,1.44
18.658376,1.33,-1.277,1.196
18.66885,1.47,-1.099,0.588
18.679324,1.75,-1.18,0.645
18.689798,1.89,-1.504,0.872
18.700272,1.68,-0.795,1.281
18.710746,1.82,-0.584,0.892
18.72122,2.1,-1.135,0.795
18.731694,2.1,-0.941,0.9
18.742154,2.31,-0.689,1.087
18.752614,2.03,-0.158,0.896
18.763074,1.82,-0.057,1.127
18.773534,1.82,0.004,0.783
18.783994,1.89,0.292,0.762
18.794454,1.96,0.097,0.657
18.804914,1.61,-0.077,0.839
18.815374,1.75,0.28,0.831
18.825834,1.75,0.061,0.864
18.836294,1.96,-0.247,0.596
18.846754,1.75,0.284,0.405
18.857214,1.54,0.604,0.604
18.867674,1.61,0.499,0.799
18.87811,1.75,0.912,0.872
18.888546,1.4,1.561,0.417
18.898982,1.89,1.618,0.499
18.909418,1.54,1.744,0.592
18.919854,1.61,1.687,0.511
18.93029,1.89,1.869,0.685
18.940726,1.68,1.776,0.811
18.951162,1.61,1.606,0.567
18.961598,2.52,0.783,-0.004
18.972034,2.1,0.92,0.02
18.98247,2.31,0.645,-0.028
18.992906,2.66,0.276,0.049
19.003342,2.8,0.081,-0.057
19.013789,2.59,-0.138,-0.024
19.024236,2.1,-0.264,-0.118
19.034683,2.24,-0.742,-0.628
19.04513,1.75,-0.56,-0.454
19.055577,1.47,-0.288,0.02
19.066024,1.89,-0.657,0.097
19.076471,1.47,-0.061,0.345
19.086918,1.54,-0.097,0.551
19.097365,1.4,-0.073,0.414
19.107812,1.47,-0.174,0.182
19.118259,1.47,0.028,0.645
19.128706,1.19,-0.028,0.564
19.139153,1.54,-0.535,0.616
19.149631,1.82,-0.547,0.685
19.160109,1.89,-0.896,1.05
19.170587,2.1,-1.03,0.6
19.181065,1.82,-0.831,0.28
19.191543,2.17,-1.273,-0.438
19.202021,2.38,-1.306,-0.657
19.212499,1.75,-0.616,-0.535
19.222977,1.89,-0.742,-0.628
19.233455,1.82,-0.418,-0.856
19.243933,1.75,-0.511,-0.73
19.254411,1.47,-0.073,-0.795
19.264889,1.75,0.272,-0.734
19.275356,1.68,1.079,-0.876
19.285823,1.19,1.804,-0.961
19.29629,1.05,2.275,-0.807
19.306757,1.26,2.113,-0.694
19.317224,1.68,2.409,-0.357
19.327691,1.4,2.915,-0.41
19.338158,1.82,2.315,-0.231
19.348625,1.54,1.995,-0.43
19.359092,1.61,1.946,-0.154
19.369559,1.47,1.898,0.121
19.380026,1.47,1.496,-0.02
19.390493,1.47,0.827,0.146
19.40096,1.54,0.138,0.024
19.411445,0.98,0.284,0.405
19.42193,0.7,-0.008,0.852
19.432415,0.98,-0.584,0.892
19.4429,1.19,-0.535,0.616
19.453385,1.05,-0.669,0.166
19.46387,1.12,-0.795,0.073
19.474355,1.82,-0.815,-0.215
19.48484,2.17,-1.127,-0.057
19.495325,2.17,-1.277,-0.012
19.50581,2.17,-0.852,-0.008
19.516295,2.31,-0.515,-0.304
19.52678,2.94,-0.401,-0.142
19.537282,2.38,-0.369,0.077
19.547784,2.66,-0.324,0.227
19.558286,2.73,-0.138,-0.024
19.568788,3.08,-0.012,0.069
19.57929,2.87,-0.199,0.32
19.589792,2.66,-0.118,0.264
19.600294,2.45,-0.231,0.101
19.610796,2.66,-0.612,0.247
19.621298,2.45,-0.499,0.41
19.6318,2.31,-0.397,0.641
19.642302,2.24,-0.385,0.572
19.652804,2.38,-0.896,1.05
19.663306,2.24,-1.277,1.196
19.673808,1.89,-0.989,1.176
19.684328,2.17,-1.034,1.026
19.694848,1.89,-1.508,1.298
19.705368,1.54,-1.419,1.598
19.715888,1.4,-1.395,1.46
19.726408,1.4,-1.387,1.817
19.736928,1.26,-1.362,1.679
19.747448,1.12,-1.261,1.91
19.757968,1.33,-1.443,1.736
19.768488,1.61,-1.719,1.687
19.779008,1.75,-1.938,1.72
19.789528,1.68,-2.246,1.452
19.800048,1.47,-2.246,1.452
19.810558,1.54,-2.258,1.521
19.821068,1.12,-2.145,1.683
19.831578,1.26,-2.133,1.614
19.842088,1.05,-1.674,1.837
19.852598,0.91,-1.549,1.93
19.863108,1.19,-1.476,1.517
19.873618,1.33,-1.557,1.574
19.884128,1.19,-1.597,2.206
19.894638,1.12,-1.545,2.713
19.905148,1.33,-1.707,2.827
19.915658,1.26,-1.958,2.64
19.926168,1.47,-2.129,2.397
19.936678,1.4,-1.966,2.283
19.947187,1.68,-2.08,2.121
19.957696,1.68,-2.331,1.935
19.968205,1.82,-2.088,1.764
19.978714,1.75,-2.112,1.902
19.989223,1.75,-2.189,1.533
19.999732,1.54,-1.958,1.432
20.010241,1.68,-1.768,1.963
20.02075,1.54,-1.472,2.299
20.031259,1.4,-1.415,2.38
20.041768,1.33,-0.965,2.247
20.052277,1.05,-0.697,1.938
20.062786,0.84,-0.73,1.719
20.073295,0.77,-0.721,2.076
20.083792,0.56,-0.754,1.857
20.094289,0.91,-0.628,1.951
20.104786,0.98,-0.847,1.983
20.115283,0.63,-1.078,2.084
20.12578,0.56,-1.297,2.117
20.136277,0.42,-1.33,1.898
20.146774,0.28,-1.314,1.403
20.157271,0.56,-1.553,1.148
20.167768,0.42,-1.362,1.679
20.178265,0.42,-1.435,2.093
20.188762,0.35,-1.747,2.251
20.199259,-0.07,-1.691,2.332
20.209756,-0.07,-1.618,1.918
20.220245,0.21,-1.387,1.817
20.230734,0.49,-0.924,1.614
20.241223,0.42,-0.831,1.488
20.251712,0.42,-0.632,1.168
20.262201,0.84,-0.864,1.269
20.27269,1.12,-0.932,1.257
20.283179,1.54,-0.705,1.582
20.293668,1.68,-1.139,1.221
20.304157,1.61,-0.92,1.188
20.314646,1.61,-0.738,1.363
20.325135,1.54,-0.499,1.618
20.335624,1.47,-0.701,1.156
20.346132,1.33,-0.409,0.71
20.35664,1.19,-0.365,0.86
20.367148,1.05,-0.446,0.916
20.377656,1.33,-0.288,1.229
20.388164,1.26,-0.401,1.067
20.398672,1.47,-0.616,0.673
20.40918,1.4,-0.758,1.075
20.419688,0.91,-0.369,1.285
20.430196,0.91,-0.357,1.217
20.440704,1.05,-0.02,0.92
20.451212,1.26,-0.065,0.77
20.46172,0.84,-0.081,1.265
20.472249,0.77,0.098,1.865
20.482778,1.05,-0.04,1.841
20.493307,1.19,-0.105,1.403
20.503836,1.12,-0.45,1.342
20.514365,1.4,-0.632,1.168
20.524894,1.47,-0.576,1.249
20.535423,1.61,-0.645,1.237
20.545952,1.4,-0.746,1.006
20.556481,1.4,-0.778,0.787
20.56701,1.26,-0.86,0.844
20.577539,1.26,-0.803,0.925
20.588068,1.12,-0.584,0.892
20.598597,1.12,-0.547,0.685
20.609136,0.77,-0.182,1.034
20.619675,0.63,0.337,0.912
20.630214,0.63,0.341,0.487
20.640753,0.77,0.503,0.373
20.651292,0.49,0.742,0.628
20.661831,0.49,0.827,1.354
20.67237,0.7,0.69,1.33
20.682909,0.98,0.377,1.488
20.693448,0.77,0.029,1.853
20.703987,1.19,-0.677,2.226
20.714526,1.47,-0.661,1.732
20.725065,1.54,-0.957,1.395
20.735585,1.33,-1.103,1.014
20.746105,1.47,-1.03,0.6
20.756625,1.75,-1.123,0.726
20.767145,1.61,-1.444,0.527
20.777665,1.75,-1.541,1.079
20.788185,1.54,-1.184,1.071
20.798705,1.54,-0.746,1.006
20.809225,1.54,-0.738,1.363
20.819745,1.26,-0.324,1.436
20.830265,1.26,-0.13,1.541
20.840785,1.33,-0.198,1.529
20.851305,1.05,-0.004,1.634
20.861825,0.77,-0.085,1.691
20.872347,0.7,-0.34,1.93
20.882869,0.98,-0.442,1.699
20.893391,0.77,-0.973,1.89
20.903913,0.35,-1.074,1.659
20.914435,0.35,-1.038,1.452
20.924957,0.07,-1.37,1.322
20.935479,-0.14,-1.403,1.103
20.946001,0.14,-1.358,1.253
20.956523,0.28,-1.626,1.561
20.967045,0.28,-1.581,1.711
20.977567,0.42,-1.443,1.736
20.988089,0.35,-1.512,1.724
20.99859,0.56,-1.164,1.359
21.009091,1.12,-1.265,1.127
21.019592,1.4,-1.484,1.16
21.030093,1.33,-1.289,1.265
21.040594,1.47,-1.005,1.671
21.051095,1.26,-1.119,1.509
21.061596,1.4,-0.718,1.65
21.072097,1.47,-0.75,1.432
21.082598,1.47,-0.543,1.468
21.093099,1.4,-0.417,1.561
21.1036,1.47,-0.588,1.318
21.114101,1.4,-0.413,1.135
21.124602,1.19,-0.474,1.48
21.135099,1.05,-0.714,1.225
21.145596,0.84,-0.864,1.269
21.156093,0.7,-0.965,1.038
21.16659,0.63,-1.07,1.233
21.177087,0.56,-1.196,1.14
21.187584,0.63,-1.151,1.29
21.198081,0.77,-0.932,1.257
21.208578,0.42,-1.164,1.359
21.219075,0.7,-1.407,1.529
21.229572,0.91,-1.2,1.565
21.240069,0.77,-1.005,1.671
21.250566,0.91,-1.018,1.74
21.261094,1.12,-0.636,1.594
21.271622,1.19,-0.754,1.857
21.28215,1.12,-0.949,1.752
21.292678,1.12,-1.062,1.59
21.303206,1.12,-1.151,1.29
21.313734,1.26,-1.131,1.578
21.324262,1.54,-1.143,1.646
21.33479,1.47,-1.212,1.634
21.345318,1.12,-1.176,1.428
21.355846,1.54,-0.807,1.35
21.366374,1.54,-1.139,1.221
21.376902,1.4,-0.924,1.614
21.387412,1.26,-0.567,1.606
21.397922,1.19,-0.255,1.448
21.408432,0.98,-0.186,1.46
21.418942,0.77,-0.267,1.517
21.429452,0.7,-0.417,1.561
21.439962,0.7,-0.466,1.837
21.450472,0.56,-0.94,2.109
21.460982,0.63,-1.435,2.093
21.471492,0.98,-1.573,2.068
21.482002,0.98,-1.606,1.849
21.492512,1.54,-1.52,1.367
21.503022,1.82,-1.999,0.856
21.513532,2.03,-1.768,0.754
21.524042,2.31,-1.711,0.836
21.534536,2.17,-1.342,0.758
21.54503,2.17,-1.666,0.986
21.555524,2.24,-1.508,1.298
21.566018,2.45,-0.993,1.602
21.576512,2.24,-0.555,1.537
21.587006,2.24,-0.705,1.582
21.5975,1.75,-0.073,1.622
21.607994,1.68,-0.43,1.63
21.618488,1.61,-0.486,1.549
21.628982,1.33,-0.636,1.594
21.639476,1.26,-1.005,1.671
21.64997,1.4,-1.05,1.521
21.660479,1.26,-1.038,1.452
21.670988,1.68,-1.289,1.265
21.681497,1.4,-1.257,1.484
21.692006,0.98,-1.439,1.31
21.702515,1.12,-1.666,0.986
21.713024,1.12,-1.715,1.261
21.723533,1.12,-1.707,1.618
21.734042,0.91,-1.569,1.642
21.744551,0.98,-1.602,1.424
21.75506,1.19,-1.606,1.849
21.765569,1.33,-1.2,1.565
21.776078,1.61,-1.269,1.553
21.786587,1.82,-1.658,1.342
21.797088,2.03,-1.464,1.448
21.807589,2.1,-1.245,1.415
21.81809,2.17,-1.638,1.63
21.828591,2.17,-1.739,1.399
21.839092,2.17,-1.889,1.444
21.849593,1.96,-1.614,1.492
21.860094,1.75,-1.902,1.513
21.870595,1.75,-1.727,1.33
21.881096,1.75,-1.877,1.375
21.891597,1.68,-1.946,1.363
21.902098,1.68,-1.719,1.687
21.912599,1.4,-1.889,1.444
21.923116,1.19,-1.946,1.363
21.933633,1.12,-1.902,1.513
21.94415,1.47,-1.626,1.561
21.954667,1.47,-1.67,1.411
21.965184,1.12,-1.468,1.874
21.975701,1.12,-1.237,1.772
21.986218,1.4,-1.131,1.578
21.996735,1.4,-0.985,1.959
22.007252,1.26,-1.261,1.91
22.017769,1.12,-0.94,2.109
22.028286,1.19,-1.103,2.222
22.038803,1.05,-1.09,2.153
22.049297,0.91,-1.135,2.003
22.059791,1.26,-1.512,1.724
22.070285,1.54,-1.569,1.642
22.080779,1.61,-2.084,1.338
22.091273,1.54,-1.991,1.213
22.101767,1.19,-1.853,1.237
22.112261,1.19,-2.007,1.707
22.122755,0.91,-2.214,1.671
22.133249,1.19,-1.857,1.663
22.143743,1.33,-1.707,1.618
22.154237,1.19,-1.82,1.456
22.164731,0.91,-1.476,1.517
22.175225,0.84,-1.687,1.906
22.18572,0.77,-1.897,2.295
22.196215,1.12,-1.91,2.364
22.20671,1.4,-2.335,2.36
22.217205,1.68,-2.583,1.748
22.2277,1.61,-2.688,1.943
22.238195,2.03,-3.159,1.789
22.24869,1.96,-2.721,1.724
22.259185,1.89,-2.352,1.647
22.26968,2.45,-2.696,1.586
22.280175,2.45,-2.214,1.671
22.29067,2.45,-2.441,1.347
22.301165,2.24,-2.603,1.46
22.311682,2.17,-2.088,1.764
22.322199,2.17,-1.719,1.687
22.332716,1.68,-1.557,1.574
22.343233,1.61,-1.443,1.736
22.35375,1.4,-0.981,1.533
22.364267,1.4,-0.973,1.89
22.374784,1.47,-1.054,1.947
22.385301,1.33,-1.147,2.072
22.395818,1.19,-1.492,2.011
22.406335,1.05,-1.573,2.068
22.416852,0.77,-1.849,2.02
22.427369,0.56,-1.561,1.999
22.437886,0.56,-1.971,1.501
22.448403,0.84,-1.796,1.318
22.458935,0.84,-1.881,1.801
22.469467,0.56,-2.25,1.878
22.479999,0.7,-2.461,2.267
22.490531,0.56,-2.185,2.316
22.501063,0.63,-2.153,2.535
22.511595,0.63,-2.011,2.133
22.522127,0.84,-2.169,1.821
22.532659,1.05,-1.893,1.87
22.543191,1.54,-1.662,1.768
22.553723,1.68,-1.662,1.768
22.564255,1.75,-1.719,1.687
22.574784,1.68,-1.662,1.768
22.585313,1.82,-1.67,1.411
22.595842,1.68,-1.2,1.565
22.606371,1.54,-0.912,1.545
22.6169,1.54,-1.131,1.578
22.627429,1.61,-1.086,1.728
22.637958,1.4,-1.338,1.541
22.648487,1.47,-1.589,1.355
22.659016,1.47,-1.395,1.46
22.669545,1.4,-1.358,1.253
22.680074,1.26,-1.301,1.334
22.690603,1.12,-1.407,1.529
22.701132,1.19,-1.358,1.253
22.711656,1.12,-1.407,1.529
22.72218,0.63,-1.464,1.448
22.732704,0.84,-1.196,1.14
22.743228,0.91,-1.014,1.314
22.753752,1.12,-1.119,1.509
22.764276,1.05,-0.957,1.395
22.7748,1.05,-0.774,1.569
22.785324,1.4,-0.567,1.606
22.795848,1.12,-0.58,1.675
22.806372,1.19,-0.718,1.65
22.816896,1.12,-0.762,1.5
22.82742,1.54,-0.945,1.326
22.837944,1.47,-0.782,1.213
22.848453,1.19,-0.726,1.294
22.858962,1.26,-0.645,1.237
22.869471,0.98,-0.665,0.949
22.87998,1.12,-0.397,0.641
22.890489,1.05,0.028,0.645
22.900998,1.26,0.203,0.462
22.911507,0.84,0.535,0.592
22.922016,0.98,0.629,0.466
22.932525,0.91,1.285,0.369
22.943034,1.19,1.354,0.381
22.953543,0.84,1.573,0.349
22.964052,0.91,1.249,0.576
22.974561,1.26,1.071,1.184
22.98506,1.12,0.771,1.273
22.995559,1.4,0.146,1.59
23.006058,1.68,-0.567,1.606
23.016557,1.68,-0.693,1.513
23.027056,1.82,-1.095,1.371
23.037555,2.03,-1.135,0.795
23.048054,2.03,-1.837,0.742
23.058553,2.52,-2.445,0.564
23.069052,2.45,-2.031,0.637
23.079551,2.52,-2.194,0.75
23.09005,2.52,-2.113,0.694
23.100549,2.45,-1.598,0.998
23.111048,2.38,-1.403,1.103
23.12154,1.89,-1.066,0.807
23.132032,2.24,-0.507,1.261
23.142524,1.96,-0.15,1.253
23.153016,1.82,0.102,1.44
23.163508,1.89,0.033,1.427
23.174,1.82,-0.174,1.391
23.184492,1.82,-0.198,1.529
23.194984,1.75,-0.048,1.484
23.205476,1.82,-0.231,1.31
23.215968,1.61,-0.726,1.294
23.22646,1.19,-0.365,0.86
23.236952,1.05,0.11,0.588
23.247466,1.4,0.028,0.645
23.25798,1.05,-0.417,1.561
23.268494,0.77,-0.174,1.391
23.279008,0.56,-0.336,1.504
23.289522,0.77,-0.336,1.504
23.300036,1.26,-0.069,1.196
23.31055,1.26,-0.057,1.127
23.321064,1.54,0.118,0.945
23.331578,1.96,0.223,0.75
23.342092,2.03,-0.065,0.77
23.352606,2.1,-0.178,0.608
23.36312,2.31,-0.304,0.515
23.373648,2.45,-0.308,0.941
23.384176,2.24,-0.227,0.884
23.394704,2.38,-0.272,0.734
23.405232,2.1,0.016,0.714
23.41576,2.38,0.089,0.3
23.426288,2.45,0.02,0.288
23.436816,2.52,-0.142,0.401
23.447344,2.87,-0.093,0.126
23.457872,2.59,0.32,0.199
23.4684,2.52,0.114,0.162
23.478928,2.38,0.324,-0.227
23.489456,2.03,0.239,0.255
23.499984,1.89,0.065,0.438
23.51049,1.75,0.02,0.288
23.520996,2.24,-0.142,0.401
23.531502,2.03,0.203,0.462
23.542008,1.68,0.649,0.754
23.552514,1.75,0.523,0.661
23.56302,2.03,-0.268,0.308
23.573526,1.96,-0.316,0.584
23.584032,2.17,-0.596,0.961
23.594538,1.89,-0.92,1.188
23.605044,1.82,-0.791,0.856
23.61555,1.75,-0.953,0.969
23.626056,2.03,-1.253,1.059
23.636562,2.1,-1.573,0.86
23.647066,2.03,-1.666,0.986
23.65757,1.89,-1.196,1.14
23.668074,1.61,-1.16,0.933
23.678578,1.54,-0.941,0.9
23.689082,1.82,-1.014,1.314
23.699586,1.82,-1.334,1.115
23.71009,1.61,-1.046,1.095
23.720594,1.54,-0.888,1.407
23.731098,1.54,-0.657,1.306
23.741602,1.82,-0.738,1.363
23.752106,1.54,-1.074,1.659
23.76261,1.33,-1.135,2.003
23.773136,1.26,-1.391,2.243
23.783662,1.54,-1.804,2.17
23.794188,1.75,-2.047,2.34
23.804714,1.96,-2.745,1.862
23.81524,2.38,-2.855,1.274
23.825766,2.1,-3.211,1.282
23.836292,2.31,-2.944,0.974
23.846818,2.45,-2.668,1.022
23.857344,2.52,-2.437,0.921
23.86787,2.52,-2.636,1.241
23.878396,2.17,-2.108,1.476
23.888922,2.17,-1.537,1.861
23.899454,1.82,-1.261,1.91
23.909986,1.54,-1.172,2.21
23.920518,1.4,-1.001,2.453
23.93105,1.4,-1.115,2.291
23.941582,1.19,-1.103,2.222
23.952114,1.05,-1.411,1.955
23.962646,1.12,-1.362,1.679
23.973178,1.19,-2.031,1.845
23.98371,0.84,-1.877,1.375
23.994242,0.7,-2.198,1.176
24.004774,0.21,-2.096,1.407
24.015306,0.49,-1.727,1.33
24.025838,0.49,-2.153,1.326
24.03637,0.49,-1.776,1.606
24.046906,0.7,-1.719,1.687
24.057442,0.63,-1.723,2.113
24.067978,0.35,-1.991,2.421
24.078514,0.77,-1.585,2.137
24.08905,0.77,-1.435,2.093
24.099586,1.05,-1.642,2.056
24.110122,1.4,-2.133,1.614
24.120658,1.47,-1.683,1.48
24.131194,1.96,-2.202,1.602
24.14173,1.75,-2.477,1.553
24.152266,1.82,-2.745,1.862
24.162802,1.89,-2.903,1.549
24.173355,1.89,-2.526,1.829
24.183908,1.68,-2.457,1.841
24.194461,1.75,-2.765,1.574
24.205014,1.61,-2.388,1.853
24.215567,1.54,-2.412,1.991
24.22612,1.54,-2.514,1.76
24.236673,1.68,-2.433,1.703
24.247226,1.54,-2.712,2.081
24.257779,1.4,-2.469,1.91
24.268332,1.4,-2.287,2.085
24.278885,1.4,-2.319,1.866
24.289438,1.54,-2.295,1.728
24.299979,1.47,-2.011,2.133
24.31052,1.4,-1.987,1.995
24.321061,1.61,-2.295,1.728
24.331602,1.75,-2.238,1.809
24.342143,1.54,-2.056,1.983
24.352684,1.54,-1.849,2.02
24.363225,1.47,-2.031,1.845
24.373766,1.54,-2.092,2.19
24.384307,1.68,-2.575,2.105
24.394848,1.68,-2.1,1.833
24.405389,1.75,-2.364,1.716
24.41593,1.61,-2.331,1.935
24.426471,1.61,-2.307,1.797
24.436977,1.68,-2.433,1.703
24.447483,1.47,-2.477,1.553
24.457989,1.4,-2.189,1.533
24.468495,1.4,-2.352,1.647
24.479001,1.33,-1.857,1.663
24.489507,0.98,-2.068,2.052
24.500013,0.77,-2.356,2.072
24.510519,0.63,-1.893,1.87
24.521025,0.63,-1.537,1.861
24.531531,0.63,-1.431,1.667
24.542037,0.91,-1.581,1.711
24.552543,0.63,-1.492,2.011
24.563049,0.49,-1.747,2.251
24.573559,0.84,-1.585,2.137
24.584069,0.91,-1.966,2.283
24.594579,0.98,-2.566,2.462
24.605089,1.05,-2.485,2.405
24.615599,1.33,-2.425,2.06
24.626109,1.26,-2.295,1.728
24.636619,1.47,-2.153,1.326
24.647129,1.61,-2.06,1.201
24.657639,1.19,-1.91,1.156
24.668149,1.26,-1.829,1.099
24.678659,0.84,-1.419,1.598
24.689169,0.7,-1.119,1.509
24.69969,0.49,-1.383,1.391
24.710211,0.28,-0.75,1.432
24.720732,0.35,-0.482,1.123
24.731253,-0.21,-0.932,1.257
24.741774,-0.91,-0.965,1.038
24.752295,-1.4,-1.301,1.334
24.762816,-1.82,-1.691,1.123
24.773337,-2.52,-2.275,0.807
24.783858,-3.22,-3.094,1.018
24.794379,-3.78,-3.848,0.459
24.8049,-4.48,-4.57,0.118
24.815421,-4.69,-5.34,0.053
24.825918,-4.62,-5.945,-0.551
24.836415,-5.53,-6.577,-0.591
24.846912,-8.4,-7.064,-0.25
24.857409,-11.76,-7.883,-0.039
24.867906,-11.9,-9.006,-1.73
24.878403,-10.15,-9.25,-1.56
24.8889,-8.61,-9.671,-0.781
24.899397,-7.7,-10.243,-1.166
24.909894,-6.44,-11.375,-3.214
24.920391,-5.18,-12.081,-5.258
24.930888,-3.5,-12.665,-5.574
24.941385,-2.31,-13.784,-5.274
24.951882,-0.56,-14.676,-4.649
24.962379,1.19,-15.888,-4.223
24.972879,2.73,-17.226,-3.89
24.983379,4.41,-17.575,-3.525
24.993879,5.74,-17.976,-3.667
25.004379,6.3,-18.187,-3.278
25.014879,6.72,-18.455,-2.97
25.025379,6.44,-18.852,-2.329
25.035879,6.02,-18.751,-2.098
25.046379,5.46,-18.467,-1.692
25.056879,4.69,-17.858,-1.514
25.067379,3.57,-17.607,-1.328
25.077879,2.38,-16.808,-0.618
25.088379,0.84,-15.158,0.099
25.098848,-0.49,-13.519,0.886
25.109317,-1.26,-12.465,1.356
25.119786,-1.96,-10.973,1.761
25.130255,-3.15,-9.468,2.098
25.140724,-3.36,-8.402,2.499
25.151193,-3.92,-6.999,2.604
25.161662,-4.27,-5.725,3.042
25.172131,-3.99,-4.614,3.593
25.1826,-4.13,-4.038,3.553
25.193069,-3.99,-3.106,3.504
25.203538,-3.5,-2.104,3.467
25.214007,-2.8,-1.589,3.771
25.224476,-2.24,-1.52,3.784
25.234953,-1.75,-1.334,3.532
25.24543,-1.19,-1.196,3.556
25.255907,-0.21,-1.309,3.394
25.266384,0.56,-1.399,3.094
25.276861,1.54,-1.865,2.514
25.287338,2.24,-2.518,2.186
25.297815,2.87,-3.179,1.501
25.308292,3.36,-3.349,1.258
25.318769,3.85,-3.082,0.949
25.329246,4.48,-3.228,0.568
25.339723,4.48,-3.783,0.897
25.3502,4.9,-3.852,0.885
25.360687,5.11,-4.156,0.191
25.371174,5.04,-4.639,0.106
25.381661,4.9,-4.493,0.487
25.392148,4.41,-4.829,0.783
25.402635,4.2,-5.227,1.424
25.413122,3.99,-5.754,1.189
25.423609,3.08,-6.622,1.676
25.434096,2.66,-7.36,1.83
25.444583,2.73,-7.66,1.919
25.45507,2.66,-8.081,1.489
25.465557,2.73,-8.446,1.141
25.476044,2.73,-8.868,0.711
25.486531,3.22,-8.864,0.285
25.497027,3.29,-8.795,0.297
25.507523,3.01,-8.734,-0.047
25.518019,3.36,-8.974,-0.303
25.528515,3.43,-8.649,-0.53
25.539011,3.71,-8.374,-0.481
25.549507,3.64,-8.256,-0.745
25.560003,3.78,-8.361,-0.55
25.570499,3.64,-8.203,-0.238
25.580995,3.36,-8.511,-0.506
25.591491,3.43,-8.26,-0.319
25.601987,3.71,-7.895,0.029
25.612483,3.92,-7.635,0.573
25.62296,4.06,-7.591,0.723
25.633437,3.92,-7.639,0.999
25.643914,3.71,-7.506,1.449
25.654391,3.64,-7.53,1.587
25.664868,3.71,-7.506,1.449
25.675345,3.71,-7.944,1.514
25.685822,3.22,-8.248,2.029
25.696299,3.22,-8.077,2.272
25.706776,3.29,-8.227,2.317
25.717253,3.22,-8.491,2.199
25.72773,3.29,-8.775,1.794
25.738207,3.43,-8.617,2.106
25.748684,3.64,-8.377,2.361
25.759168,3.92,-8.718,1.875
25.769652,4.62,-8.921,1.412
25.780136,4.62,-9.415,1.396
25.79062,4.97,-9.732,0.772
25.801104,5.32,-10.085,0.354
25.811588,5.81,-10.348,0.237
25.822072,6.09,-10.324,0.099
25.832556,6.09,-10.644,-0.1
25.84304,6.37,-10.721,-0.469
25.853524,6.44,-10.961,-0.724
25.864008,6.51,-11.743,-0.72
25.874492,6.72,-11.431,-0.878
25.884976,6.93,-11.889,-1.101
25.895441,6.93,-12.303,-1.174
25.905906,6.72,-12.453,-1.13
25.916371,6.86,-12.558,-0.935
25.926836,7.0,-13.146,-0.825
25.937301,7.0,-13.167,-1.113
25.947766,6.65,-13.179,-1.044
25.958231,6.44,-13.467,-1.024
25.968696,6.09,-13.272,-0.919
25.979161,6.44,-13.098,-1.101
25.989626,6.51,-12.996,-0.87
26.000091,6.37,-12.794,-0.408
26.010556,6.23,-12.319,-0.68
26.021028,6.23,-11.857,-0.882
26.0315,5.95,-11.764,-1.008
26.041972,5.6,-11.549,-0.615
26.052444,5.53,-10.79,-0.481
26.062916,5.25,-10.304,-0.822
26.073388,5.32,-9.627,-0.631
26.08386,5.32,-9.108,-0.753
26.094332,5.18,-8.739,-0.83
26.104804,4.9,-8.301,-0.895
26.115276,4.69,-7.883,-1.248
26.125748,4.62,-7.619,-1.13
26.13622,4.41,-7.38,-0.875
26.146696,4.27,-7.494,-1.037
26.157172,4.41,-7.344,-1.082
26.167648,4.34,-7.518,-0.899
26.178124,4.2,-7.149,-0.976
26.1886,4.13,-7.392,-0.806
26.199076,3.71,-7.599,-0.842
26.209552,3.64,-7.903,-0.327
26.220028,3.57,-8.049,0.5
26.230504,3.36,-8.759,1.299
26.24098,3.29,-9.192,2.146
26.251456,3.22,-9.671,2.844
26.261932,3.29,-10.506,3.55
26.272408,2.94,-11.065,4.304
26.282884,2.94,-11.556,5.07
26.293349,2.73,-11.422,5.52
26.303814,1.82,-10.875,4.835
26.314279,0.98,-10.133,4.255
26.324744,0.14,-9.622,2.568
26.335209,0.0,-9.31,-0.007
26.345674,0.56,-8.625,-1.876
26.356139,1.4,-8.175,-3.219
26.366604,1.89,-8.184,-4.784
26.377069,2.66,-7.344,-5.915
26.387534,4.2,-6.996,-7.489
26.397999,5.39,-6.98,-9.192
26.408464,6.51,-6.644,-10.696
26.418921,7.77,-6.526,-12.168
26.429378,8.47,-6.486,-12.801
26.439835,9.66,-6.105,-14.155
26.450292,10.57,-6.044,-15.708
26.460749,10.64,-6.121,-16.077
26.471206,10.5,-6.547,-16.081
26.481663,10.57,-6.368,-15.481
26.49212,10.43,-6.145,-14.731
26.502577,9.52,-6.518,-14.228
26.513034,8.54,-6.62,-13.251
26.523491,7.21,-6.595,-12.18
26.533948,5.46,-6.753,-10.076
26.544405,3.64,-6.972,-7.626
26.554862,2.17,-7.016,-5.36
26.565332,1.05,-7.202,-3.9
26.575802,0.14,-7.072,-3.024
26.586272,-0.77,-7.068,-1.033
26.596742,-1.82,-7.23,1.497
26.607212,-2.38,-7.481,3.728
26.617682,-2.66,-7.485,5.362
26.628152,-2.38,-7.793,6.303
26.638622,-2.45,-7.732,7.166
26.649092,-2.24,-7.562,7.41
26.659562,-2.45,-7.055,7.357
26.670032,-2.73,-6.025,6.756
26.680502,-2.52,-5.275,5.325
26.690991,-2.45,-3.913,3.646
26.70148,-2.24,-2.891,2.689
26.711969,-2.1,-2.396,2.705
26.722458,-1.89,-2.116,2.328
26.732947,-1.26,-1.841,1.168
26.743436,-0.63,-1.314,0.195
26.753925,-0.07,-1.135,-0.413
26.764414,0.42,-1.103,-1.403
26.774903,0.56,-0.868,-1.93
26.785392,0.91,-0.629,-2.883
26.795881,1.26,-0.641,-2.814
26.80637,1.4,-0.897,-3.783
26.816876,1.47,-1.428,-4.801
26.827382,1.47,-1.387,-4.225
26.837888,1.54,-1.444,-3.098
26.848394,2.03,-2.04,-3.345
26.8589,2.38,-2.697,-4.456
26.869406,2.66,-3.163,-3.827
26.879912,2.73,-3.37,-1.447
26.890418,1.96,-3.475,-0.044
26.900924,1.12,-3.021,-0.604
26.91143,0.91,-3.321,-0.515
26.921936,1.26,-3.199,0.005
26.932442,2.8,-3.382,1.039
26.942948,4.34,-2.927,1.687
26.953454,5.18,-1.776,2.814
26.963952,5.11,-0.656,3.723
26.97445,3.85,0.073,3.212
26.984948,2.59,0.807,2.275
26.995446,2.03,1.699,1.65
27.005944,1.75,2.77,1.626
27.016442,2.03,3.67,1.358
27.02694,3.29,3.577,0.275
27.037438,5.25,3.39,-0.682
27.047936,7.91,3.175,-1.075
27.058434,10.5,2.802,-0.572
27.068932,13.3,1.699,-0.767
27.07943,15.82,0.178,-0.608
27.089928,17.36,-1.196,-0.069
27.100422,17.64,-2.477,1.553
27.110916,17.64,-4.079,2.977
27.12141,17.57,-5.677,2.766
27.131904,17.22,-7.278,2.981
27.142398,16.66,-8.32,3.651
27.152892,15.4,-9.237,4.413
27.163386,14.07,-10.441,5.196
27.17388,12.67,-10.972,5.387
27.184374,10.64,-11.146,5.569
27.194868,9.03,-11.548,5.427
27.205362,7.14,-11.629,5.484
27.215856,5.32,-11.179,5.35
27.22636,3.71,-11.061,5.086
27.236864,2.17,-11.037,4.949
27.247368,0.21,-10.632,4.665
27.257872,-1.33,-9.707,4.259
27.268376,-2.8,-8.823,3.278
27.27888,-3.85,-7.891,2.02
27.289384,-4.76,-6.395,0.792
27.299888,-5.46,-5.645,-0.64
27.310392,-6.02,-4.728,-1.402
27.320896,-6.37,-3.39,-1.735
27.3314,-7.0,-2.344,-1.622
27.341904,-7.63,-1.27,-2.072
27.352408,-8.33,-0.3,-2.328
27.362938,-8.75,0.827,-2.271
27.373468,-9.52,1.561,-1.999
27.383998,-10.29,2.193,-1.959
27.394528,-10.92,2.364,-1.716
27.405058,-11.34,2.806,-0.998
27.415588,-10.92,3.353,-0.475
27.426118,-10.64,3.84,0.393
27.436648,-10.64,3.97,1.269
27.447178,-9.94,4.031,2.132
27.457708,-8.89,4.234,2.595
27.468238,-8.33,4.599,2.943
27.478768,-7.35,4.838,3.199
27.489297,-5.81,4.976,3.223
27.499826,-4.69,4.802,3.406
27.510355,-3.71,4.652,3.45
27.520884,-2.31,4.364,3.47
27.531413,-1.47,3.836,3.235
27.541942,-0.42,3.622,2.842
27.552471,0.56,3.601,2.554
27.563,1.4,3.005,2.307
27.573529,1.82,2.798,2.27
27.584058,2.38,2.766,2.051
27.594587,2.66,2.308,1.828
27.605116,3.15,2.332,1.691
27.615645,3.43,2.875,1.431
27.626167,3.22,2.697,0.831
27.636689,3.36,2.482,0.438
27.647211,3.08,2.599,0.174
27.657733,2.66,2.23,0.251
27.668255,2.03,1.865,-0.098
27.678777,1.61,1.395,-0.252
27.689299,1.33,1.014,-0.106
27.699821,0.63,0.827,0.146
27.710343,0.77,0.243,-0.17
27.720865,0.49,-0.491,-0.442
27.731387,0.7,-0.483,-0.085
27.741909,0.21,-0.442,0.491
27.752431,-0.14,-0.332,1.079
27.762946,0.0,-0.426,1.204
27.773461,-0.07,0.008,1.565
27.783976,0.14,0.171,1.452
27.794491,0.35,0.402,1.35
27.805006,0.42,0.73,1.906
27.815521,0.35,0.621,2.526
27.826036,0.42,0.15,2.372
27.836551,0.77,-0.036,2.624
27.847066,1.33,-0.478,3.114
27.857581,1.47,-0.884,3.398
27.868096,1.68,-0.928,3.248
27.878611,1.47,-1.374,2.956
27.889126,1.33,-1.715,2.47
27.899628,1.4,-1.504,2.08
27.91013,1.26,-1.35,1.61
27.920632,1.61,-1.281,1.622
27.931134,2.17,-1.577,1.286
27.941636,2.17,-1.358,1.253
27.952138,1.89,-0.762,1.5
27.96264,1.96,-0.567,1.606
27.973142,1.75,-0.417,1.561
27.983644,1.75,0.239,1.464
27.994146,1.82,0.308,1.476
28.004648,2.03,0.527,1.444
28.01515,1.89,0.507,1.156
28.025669,1.75,0.568,0.811
28.036188,1.75,0.337,0.912
28.046707,1.68,0.13,0.876
28.057226,1.75,-0.263,1.091
28.067745,1.61,-0.778,0.787
28.078264,1.33,-0.892,0.625
28.088783,1.47,-0.653,0.88
28.099302,1.26,-0.896,1.05
28.109821,1.12,-1.208,1.209
28.12034,0.98,-1.695,1.549
28.130859,0.56,-2.023,2.202
28.141378,0.28,-2.161,2.178
28.151922,0.28,-2.056,1.983
28.162466,-0.14,-2.526,1.829
28.17301,-0.21,-2.522,1.403
28.183554,-0.14,-2.599,1.034
28.194098,0.14,-2.53,1.047
28.204642,0.35,-2.392,1.071
28.215186,0.49,-2.185,1.107
28.22573,0.77,-2.453,1.416
28.236274,0.98,-2.157,1.752
28.246818,1.4,-2.088,1.764
28.257362,1.47,-1.833,1.525
28.267906,1.05,-1.305,1.76
28.278477,0.98,-1.147,2.072
28.289048,0.56,-0.876,2.547
28.299619,0.42,-0.989,2.384
28.31019,0.63,-0.92,2.397
28.320761,0.56,-0.872,2.121
28.331332,0.7,-1.086,1.728
28.341903,0.7,-0.868,1.695
28.352474,0.56,-0.985,1.959
28.363045,0.49,-1.131,1.578
28.373616,0.42,-1.326,1.472
28.384187,0.35,-1.439,1.31
28.394758,0.42,-1.703,1.192
28.405329,0.28,-1.999,0.856
28.415906,-0.14,-1.885,1.018
28.426483,-0.07,-1.93,0.868
28.43706,0.0,-2.336,1.152
28.447637,-0.14,-2.36,1.29
28.458214,-0.14,-1.967,1.075
28.468791,-0.21,-2.437,0.921
28.479368,0.21,-2.445,0.564
28.489945,0.14,-2.161,0.969
28.500522,-0.07,-1.618,0.71
28.511099,0.0,-1.626,0.353
28.521676,-0.28,-1.431,0.458
28.532253,-0.42,-0.904,0.694
28.542813,-0.42,-0.778,0.787
28.553373,-0.28,-0.316,0.584
28.563933,0.07,0.085,0.726
28.574493,0.35,0.28,0.831
28.585053,0.63,0.11,0.588
28.595613,0.28,0.187,0.957
28.606173,0.14,0.357,1.2
28.616733,0.14,0.446,1.5
28.627293,0.07,0.353,1.626
28.637853,-0.14,0.061,2.072
28.648413,0.21,-0.19,1.886
28.658973,0.0,-0.442,1.699
28.669533,-0.07,-0.864,1.269
28.680089,0.35,-0.803,0.925
28.690645,0.49,-0.503,0.835
28.701201,0.56,-0.811,0.568
28.711757,0.56,-0.499,0.41
28.722313,0.77,-0.462,0.203
28.732869,1.33,-0.3,0.089
28.743425,1.47,-0.105,0.195
28.753981,1.26,0.085,0.726
28.764537,1.12,0.268,0.9
28.775093,0.84,-0.15,1.253
28.785649,0.49,0.118,0.945
28.796205,0.0,0.199,0.888
28.806761,0.07,0.479,0.511
28.817325,-0.35,0.239,0.255
28.827889,-0.21,0.483,0.085
28.838453,-0.07,0.32,0.199
28.849017,-0.42,-0.109,0.62
28.859581,-0.98,0.037,1.002
28.870145,-1.4,0.337,0.912
28.880709,-1.54,0.223,0.75
28.891273,-1.54,-0.032,0.989
28.901837,-1.61,-0.239,0.953
28.912401,-1.47,-0.207,1.172
28.922965,-1.33,-0.499,1.618
28.933511,-0.84,-0.385,1.78
28.944057,-0.56,0.085,1.934
28.954603,-0.56,-0.259,1.873
28.965149,-0.63,-0.385,1.78
28.975695,-0.7,-0.065,1.979
28.986241,-1.19,-0.052,1.91
28.996787,-1.61,0.511,1.938
29.007333,-1.68,0.365,1.557
29.017879,-1.68,0.41,1.707
29.028425,-1.54,0.629,1.675
29.038971,-1.4,0.519,1.087
29.049517,-1.19,0.771,1.273
29.060063,-1.26,0.819,0.997
29.07061,-1.68,1.006,0.746
29.081157,-1.75,0.953,0.239
29.091704,-1.89,0.896,0.158
29.102251,-2.1,0.896,0.158
29.112798,-2.45,0.734,0.272
29.123345,-2.8,0.71,0.409
29.133892,-3.64,0.564,0.028
29.144439,-4.06,0.612,-0.247
29.154986,-4.34,0.876,-0.13
29.165533,-4.48,1.204,0.426
29.17608,-4.83,1.525,0.624
29.186627,-4.69,1.979,0.065
29.197141,-5.04,2.611,-1.103
29.207655,-4.69,3.15,-2.146
29.218169,-3.5,3.613,-2.348
29.228683,-1.75,4.188,-2.389
29.239197,-0.21,4.452,-2.271
29.249711,0.7,4.943,-1.829
29.260225,0.56,5.624,-2.065
29.270739,0.0,5.543,-2.008
29.281253,-0.14,5.596,-1.501
29.291767,-0.91,5.498,-0.95
29.302281,-1.19,5.373,-1.043
29.312795,-0.91,5.129,-0.873
29.323309,-0.63,5.012,-1.817
29.333823,-0.35,4.93,-2.969
29.344315,-0.35,4.529,-4.319
29.354807,-0.07,4.168,-5.094
29.365299,-0.21,3.438,-5.791
29.375791,-0.84,3.454,-6.286
29.386283,-1.61,3.215,-6.541
29.396775,-1.68,3.105,-7.129
29.407267,-1.82,3.125,-6.841
29.417759,-1.68,3.434,-6.574
29.428251,-1.33,3.426,-5.722
29.438743,-0.49,3.093,-4.643
29.449235,-0.14,2.907,-3.184
29.459727,0.77,3.256,-1.132
29.470224,1.19,3.131,1.192
29.480721,0.7,3.151,3.896
29.491218,0.42,3.172,6.601
29.501715,0.35,3.294,9.537
29.512212,0.7,3.558,12.071
29.522709,1.54,3.891,14.618
29.533206,2.59,3.972,16.978
29.543703,3.43,4.613,19.792
29.5542,4.34,5.331,21.766
29.564697,5.53,6.195,22.914
29.575194,6.72,6.836,23.311
29.585691,7.63,7.428,23.984
29.59617,8.96,7.355,24.398
29.606649,9.87,7.355,24.398
29.617128,10.78,7.002,23.98
29.627607,11.06,5.932,24.005
29.638086,12.04,4.792,24.017
29.648565,12.67,3.037,24.703
29.659044,13.58,0.555,25.473
29.669523,14.91,-2.182,26.483
29.680002,16.31,-5.296,27.214
29.690481,18.13,-8.868,27.721
29.70096,20.79,-12.388,28.735
29.711439,23.66,-15.928,29.462
29.721918,24.43,-20.003,30.805
29.732397,23.87,-23.267,32.788
29.742839,21.35,-26.198,34.901
29.753281,17.57,-29.09,35.173
29.763723,14.84,-31.62,35.011
29.774165,13.09,-33.773,36.337
29.784607,11.13,-35.861,38.102
29.795049,8.68,-37.345,39.262
29.805491,6.58,-38.152,39.404
29.815933,4.41,-39.251,38.783
29.826375,2.38,-40.09,38.706
29.836817,0.35,-39.9,39.238
29.847259,-1.47,-39.429,39.392
29.857701,-2.59,-39.137,38.946
29.868141,-3.29,-38.298,39.022
29.878581,-3.85,-36.769,38.013
29.889021,-4.34,-35.435,36.897
29.899461,-4.48,-33.607,35.798
29.909901,-4.97,-31.486,34.253
29.920341,-4.48,-29.329,33.709
29.930781,-3.5,-27.35,32.565
29.941221,-2.03,-25.343,32.066
29.951661,-0.14,-23.373,31.774
29.962101,1.96,-22.144,32.062
29.972541,4.13,-21.775,31.985
29.982981,6.23,-21.069,31.612
29.993396,7.98,-20.603,32.191
30.003811,9.87,-19.772,33.12
30.014226,11.9,-19.143,32.378
30.024641,13.51,-18.726,30.816
30.035056,14.42,-18.008,29.166
30.045471,15.12,-17.461,27.272
30.055886,15.47,-16.61,26.072
30.066301,15.82,-15.515,25.91
30.076716,16.03,-14.895,24.811
30.087131,16.8,-14.66,23.075
30.097546,17.78,-13.971,20.78
30.107961,17.85,-13.48,18.805
30.118376,17.85,-12.321,17.872
30.128799,17.64,-11.94,16.518
30.139222,17.01,-11.4,15.475
30.149645,15.89,-11.178,15.017
30.160068,13.23,-11.153,14.879
30.170491,9.66,-10.338,15.094
30.180914,6.58,-8.96,14.129
30.191337,4.41,-7.987,12.239
30.20176,2.8,-6.92,10.224
30.212183,1.68,-5.173,9.181
30.222606,0.56,-3.028,8.706
30.233029,-0.28,-1.0,8.495
30.243452,-1.75,1.315,8.264
30.253875,-3.01,3.561,8.02
30.264299,-4.06,6.104,8.113
30.274723,-4.27,8.277,8.283
30.285147,-4.27,9.839,8.701
30.295571,-3.99,10.816,8.802
30.305995,-3.36,11.878,9.629
30.316419,-2.73,13.038,9.905
30.326843,-2.03,13.476,9.84
30.337267,-1.89,14.097,9.949
30.347691,-2.24,14.194,9.397
30.358115,-2.17,14.198,8.972
30.368539,-1.61,13.407,8.619
30.378963,-2.03,12.852,8.948
30.389411,-2.73,12.92,8.96
30.399859,-3.22,13.314,8.745
30.410307,-4.13,13.212,8.514
30.420755,-5.46,12.665,7.991
30.431203,-6.65,11.769,7.833
30.441651,-6.65,10.528,7.614
30.452099,-6.72,9.332,7.545
30.462547,-6.58,8.156,7.764
30.472995,-7.21,6.935,7.833
30.483443,-7.21,5.354,7.128
30.493891,-7.21,3.569,7.169
30.504339,-6.86,1.392,7.424
30.514787,-6.16,0.074,8.045
30.525268,-5.74,-0.116,8.722
30.535749,-5.18,0.451,8.325
30.54623,-3.29,1.789,6.784
30.556711,-0.49,2.916,5.632
30.567192,1.05,5.475,6.439
30.577673,2.31,6.213,5.076
30.588154,2.59,6.083,2.992
30.598635,1.12,6.76,1.974
30.609116,-0.84,7.774,1.868
30.619597,-2.87,6.435,0.993
30.630078,-4.27,5.49,-0.098
30.640559,-5.74,4.862,-0.564
30.65104,-6.86,3.739,-1.047
30.661549,-6.86,2.36,-1.29
30.672058,-6.79,0.791,-0.856
30.682567,-6.58,-0.702,-0.053
30.693076,-5.74,-1.95,0.58
30.703585,-4.97,-3.216,0.499
30.714094,-4.2,-3.877,-0.186
30.724603,-3.99,-4.355,-0.697
30.735112,-3.85,-4.748,-0.482
30.745621,-3.29,-4.817,-0.494
30.75613,-2.45,-5.624,0.856
30.766639,-0.7,-6.634,1.745
30.777148,2.1,-6.374,3.496
30.787657,3.5,-6.09,3.902
30.798153,3.43,-4.026,3.484
30.808649,1.75,-0.397,3.058
30.819145,0.63,2.798,1.062
30.829641,-0.7,5.146,-0.159
30.840137,-2.03,7.672,0.429
30.850633,-2.94,8.751,-0.447
30.861129,-2.8,8.438,-1.497
30.871625,-2.1,7.242,-1.566
30.882121,-2.52,6.456,0.072
30.892617,-3.08,6.087,1.358
30.903113,-2.66,5.43,0.247
30.913609,-1.33,4.035,-0.71
30.924105,-0.07,2.721,-0.515
30.934637,1.33,1.78,1.593
30.945169,2.24,0.572,2.802
30.955701,2.38,-0.442,1.699
30.966233,2.66,-0.365,0.86
30.976765,2.24,-0.243,1.379
30.987297,0.98,0.629,2.883
30.997829,0.28,0.272,2.891
31.008361,0.77,-0.701,2.364
31.018893,1.19,-0.778,3.204
31.029425,1.4,-0.344,4.773
31.039957,1.75,0.126,4.927
31.050489,1.61,1.464,4.594
31.061023,1.75,3.885,4.168
31.071557,2.38,5.353,2.294
31.082091,2.45,7.49,1.463
31.092625,2.87,8.56,0.23
31.103159,3.08,8.803,-1.149
31.113693,2.94,6.938,-2.26
31.124227,2.1,5.815,-0.325
31.134761,1.26,5.146,2.258
31.145295,0.21,4.449,1.78
31.155829,0.63,3.645,0.287
31.166363,0.98,2.53,0.162
31.176897,0.28,1.541,1.338
31.187431,0.77,0.568,2.019
31.197982,1.47,-0.523,1.756
31.208533,1.33,-1.151,1.29
31.219084,0.63,-1.37,1.322
31.229635,-0.14,-1.662,0.56
31.240186,-0.56,-2.105,-0.158
31.250737,-0.56,-3.475,-0.044
31.261288,0.77,-5.207,0.504
31.271839,1.19,-5.563,2.928
31.28239,0.84,-5.311,4.323
31.292941,0.91,-3.6,3.488
31.303492,0.28,-1.228,2.129
31.314043,-0.07,2.673,2.177
31.324596,0.7,5.057,0.749
31.335149,0.35,7.53,0.83
31.345702,0.91,10.13,1.004
31.356255,1.82,10.896,0.286
31.366808,2.94,11.399,-0.549
31.377361,3.99,12.25,-0.541
31.387914,4.06,12.761,0.189
31.398467,3.71,12.538,-0.561
31.40902,3.5,12.238,-1.68
31.419573,3.78,10.145,-1.907
31.430126,4.34,8.341,-0.946
31.440679,4.13,5.722,1.009
31.451232,4.2,3.228,1.849
31.461802,3.99,0.88,0.653
31.472372,3.92,-1.237,-0.645
31.482942,2.31,-2.697,0.377
31.493512,0.98,-3.264,3.192
31.504082,1.19,-4.022,3.058
31.514652,1.26,-4.254,0.743
31.525222,1.33,-4.408,-1.204
31.535792,0.98,-4.821,-0.068
31.546362,1.4,-5.973,1.221
31.556932,2.31,-6.411,2.495
31.567502,2.8,-6.597,2.746
31.578072,2.94,-6.561,2.539
31.588661,3.15,-6.419,2.138
31.59925,3.5,-6.188,2.036
31.609839,3.43,-5.725,3.042
31.620428,3.29,-5.729,3.468
31.631017,3.64,-5.965,2.787
31.641606,3.64,-5.08,3.014
31.652195,2.59,-4.472,3.192
31.662784,1.54,-2.704,2.437
31.673373,0.21,-0.831,1.488
31.683962,-0.63,0.182,0.174
31.694551,-1.19,0.637,0.823
31.70514,0.07,0.608,1.387
31.715729,1.47,0.629,1.675
31.726325,1.82,-0.113,1.046
31.736921,2.45,-1.054,0.738
31.747517,2.31,-0.924,1.614
31.758113,1.75,-1.382,2.599
31.768709,1.82,-2.12,2.754
31.779305,2.66,-3.921,2.081
31.789901,2.24,-5.218,2.989
31.800497,1.89,-4.667,4.295
31.811093,1.68,-4.063,3.691
31.821689,0.77,-3.195,3.204
31.832285,0.49,-1.93,2.076
31.842881,-0.07,-0.872,0.912
31.853449,-0.14,-0.28,0.377
31.864017,-0.42,-0.154,0.47
31.874585,-0.42,-1.16,0.933
31.885153,-1.12,-1.65,1.699
31.895721,-2.1,-2.068,2.052
31.906289,-1.89,-1.91,1.156
31.916857,-0.77,-1.776,0.398
31.927425,-0.77,-1.894,0.661
31.937993,-0.49,-2.141,1.257
31.948561,0.7,-2.023,0.994
31.959129,1.82,-2.238,0.6
31.969697,2.17,-2.603,0.252
31.980265,1.89,-2.096,0.199
31.990825,1.75,-2.036,-0.146
32.001385,2.59,-2.685,-0.9
32.011945,3.08,-4.002,-1.488
32.022505,2.8,-4.874,-0.575
32.033065,2.73,-5.563,0.512
32.043625,2.24,-5.397,1.181
32.054185,1.75,-4.318,1.513
32.064745,1.47,-2.883,0.629
32.075305,0.91,-1.492,-0.405
32.085865,0.35,0.118,-0.264
32.096425,0.84,0.71,-0.799
32.106985,0.0,1.07,-1.233
32.117526,-0.63,0.681,-1.444
32.128067,-2.03,0.247,-0.596
32.138608,-3.92,0.499,-0.41
32.149149,-5.32,0.701,-1.156
32.15969,-7.07,0.251,-2.23
32.170231,-8.12,0.121,-1.898
32.180772,-8.4,-0.673,-0.616
32.191313,-8.47,-2.161,-0.239
32.201854,-8.68,-3.09,-0.616
32.212395,-9.73,-4.911,-1.577
32.222936,-11.48,-7.02,-2.517
32.233477,-13.16,-7.024,-3.3
32.244018,-14.35,-6.469,-6.045
32.254526,-14.35,-4.843,-10.023
32.265034,-14.14,-3.027,-14.679
32.275542,-13.79,-2.322,-17.469
32.28605,-14.28,-1.462,-17.104
32.296558,-15.33,-0.582,-15.243
32.307066,-16.24,0.091,-14.626
32.317574,-17.5,0.793,-14.574
32.328082,-18.9,1.498,-14.947
32.33859,-20.58,2.407,-14.858
32.349098,-22.05,3.68,-15.628
32.359606,-23.59,4.515,-17.543
32.370114,-24.92,5.488,-19.432
32.380622,-26.53,6.234,-20.438
32.391103,-27.37,6.343,-21.058
32.401584,-28.07,6.623,-21.436
32.412065,-28.63,7.15,-21.2
32.422546,-28.14,7.3,-21.245
32.433027,-27.58,6.745,-20.917
32.443508,-27.09,7.211,-20.337
32.453989,-26.74,7.937,-19.214
32.46447,-26.25,8.509,-18.829
32.474951,-25.27,9.166,-18.926
32.485432,-24.36,9.888,-18.585
32.495913,-22.68,10.492,-17.981
32.506394,-20.72,11.104,-17.02
32.516877,-18.2,10.991,-15.974
32.52736,-15.05,11.129,-14.741
32.537843,-12.46,10.813,-12.949
32.548326,-10.01,10.327,-10.192
32.558809,-7.42,9.508,-7.564
32.569292,-5.39,8.442,-5.548
32.579775,-3.15,7.44,-4.303
32.590258,-0.91,6.577,-3.034
32.600741,0.63,6.013,-0.646
32.611224,2.17,5.203,1.131
32.621707,3.01,4.258,2.457
32.63219,4.55,3.995,3.548
32.642655,6.09,3.09,4.241
32.65312,8.19,2.596,5.433
32.663585,9.38,1.315,7.056
32.67405,11.13,0.326,8.232
32.684515,12.74,-0.915,8.013
32.69498,14.28,-1.621,7.178
32.705445,15.19,-2.452,7.457
32.71591,14.98,-3.052,7.636
32.726375,14.0,-3.701,6.882
32.73684,13.16,-3.758,4.384
32.747305,12.39,-3.56,1.647
32.75777,12.53,-3.37,-1.447
32.768235,12.04,-2.953,-4.217
32.778695,12.11,-1.923,-6.025
32.789155,12.25,-1.068,-7.652
32.799615,12.18,0.031,-10.657
32.810075,12.11,1.275,-13.28
32.820535,11.55,3.153,-14.655
32.830995,9.87,4.463,-14.424
32.841455,8.82,5.837,-13.755
32.851915,7.56,7.419,-14.258
32.862375,6.51,9.044,-15.82
32.872835,5.11,10.309,-16.947
32.883295,3.57,11.68,-17.061
32.893755,2.38,12.434,-16.501
32.904215,1.75,14.3,-16.599
32.914661,1.12,15.248,-17.143
32.925107,0.84,15.69,-17.633
32.935553,0.49,16.493,-17.35
32.945999,-0.14,16.858,-17.001
32.956445,-0.91,17.653,-17.074
32.966891,-1.19,18.286,-17.034
32.977337,-1.68,18.363,-16.665
32.987783,-1.54,18.379,-15.951
32.998229,-0.84,17.905,-15.679
33.008675,0.21,17.475,-15.257
33.019121,1.61,16.867,-14.227
33.029567,3.85,15.934,-12.97
33.040004,5.67,15.16,-11.401
33.050441,7.0,14.455,-9.819
33.060878,7.49,13.336,-9.519
33.071315,7.91,11.827,-9.43
33.081752,8.19,10.554,-8.659
33.092189,8.89,8.863,-6.327
33.102626,9.45,7.071,-4.226
33.113063,9.45,5.154,-2.219
33.1235,9.03,3.901,0.048
33.133937,8.19,3.256,1.285
33.144374,6.58,2.198,1.241
33.154811,4.62,1.014,2.311
33.165248,2.59,0.345,3.686
33.175694,1.47,0.272,4.1
33.18614,1.12,-0.142,2.818
33.196586,0.77,-0.657,2.514
33.207032,-0.21,-0.993,4.019
33.217478,-1.26,-1.394,5.085
33.227924,-1.47,-2.136,4.457
33.23837,-1.26,-2.733,3.001
33.248816,-1.47,-2.838,3.196
33.259262,-1.61,-2.968,3.528
33.269708,-1.33,-3.053,1.594
33.280154,-0.91,-2.522,-1.013
33.2906,-0.21,-1.971,-3.333
33.301046,0.42,-1.546,-4.537
33.311517,1.12,-0.982,-5.717
33.321988,2.52,-0.629,-6.508
33.332459,4.55,-0.208,-7.287
33.34293,5.53,-0.046,-7.4
33.353401,5.95,-0.009,-7.607
33.363872,6.44,0.023,-8.597
33.374343,7.14,-0.176,-9.485
33.384814,7.91,0.396,-9.099
33.395285,8.82,0.311,-8.617
33.405756,9.17,-0.017,-9.172
33.416227,9.17,0.258,-10.332
33.426696,8.82,0.242,-11.046
33.437165,7.49,0.595,-10.628
33.447634,6.02,0.506,-9.72
33.458103,4.97,0.21,-8.848
33.468572,4.34,0.015,-8.953
33.479041,3.85,0.015,-8.953
33.48951,4.2,-0.638,-8.073
33.499979,5.88,-1.023,-7.502
33.510448,8.12,-1.432,-6.792
33.520917,10.71,-1.801,-5.506
33.531386,13.3,-2.385,-4.614
33.541855,15.61,-3.062,-3.596
33.552324,16.45,-4.007,-3.479
33.562777,17.57,-4.7,-3.174
33.57323,18.27,-6.026,-2.911
33.583683,19.04,-6.744,-2.469
33.594136,19.04,-7.368,-2.152
33.604589,18.41,-8.727,-2.107
33.615042,17.64,-9.306,-1.641
33.625495,15.96,-9.586,-1.264
33.635948,14.49,-9.493,-1.39
33.646401,12.6,-9.12,-1.892
33.656854,10.15,-8.277,-2.241
33.667307,7.14,-6.488,-2.708
33.67776,3.57,-5.021,-3.373
33.688213,0.84,-3.439,-3.876
33.698709,0.91,-1.687,-4.136
33.709205,1.89,-0.434,-2.778
33.719701,2.8,1.711,-0.836
33.730197,3.71,3.07,0.328
33.740693,5.46,4.335,0.409
33.751189,6.65,6.034,0.851
33.761685,7.84,7.024,2.091
33.772181,8.96,7.385,2.866
33.782677,10.08,7.486,3.097
33.793173,10.29,6.854,4.265
33.803669,10.15,6.209,5.502
33.814165,9.1,5.763,6.418
33.824693,7.77,5.037,6.504
33.835221,6.37,4.027,6.183
33.845749,4.97,3.058,6.439
33.856277,4.48,2.523,5.847
33.866805,4.41,1.639,4.412
33.877333,3.92,1.326,3.361
33.887861,3.71,0.791,2.769
33.898389,4.06,0.43,1.995
33.908917,4.06,-0.263,1.091
33.919445,4.27,-0.612,0.247
33.929973,4.34,-1.383,0.183
33.940501,3.78,-2.04,0.28
33.951029,3.57,-2.486,-0.012
33.961547,3.36,-2.401,-0.494
33.972065,3.43,-3.033,-0.535
33.982583,4.2,-3.451,-0.182
33.993101,5.46,-3.621,0.783
34.003619,6.16,-4.112,1.55
34.014137,6.16,-4.322,1.939
34.024655,6.02,-4.485,2.052
34.035173,6.16,-4.748,1.935
34.045691,6.44,-4.57,2.535
34.056209,6.51,-4.793,2.993
34.066727,6.02,-4.967,3.176
34.077245,5.95,-5.279,3.334
34.087763,6.3,-5.093,3.083
34.098262,6.86,-4.862,2.981
34.108761,6.09,-4.748,3.143
34.11926,5.32,-4.501,2.547
34.129759,4.69,-4.476,2.409
34.140258,3.71,-4.622,2.028
34.150757,3.01,-4.562,1.683
34.161256,2.17,-4.172,1.894
34.171755,1.61,-3.503,1.728
34.182254,0.91,-2.931,2.113
34.192753,0.28,-2.275,2.016
34.203252,-0.35,-1.991,2.421
34.213751,-0.77,-1.476,2.725
34.22425,-0.77,-1.427,2.449
34.234749,-1.4,-1.224,2.912
34.245247,-1.75,-1.026,2.591
34.255745,-1.05,-1.058,2.372
34.266243,-0.21,-1.184,2.279
34.276741,0.56,-0.957,2.603
34.287239,1.4,-0.9,2.685
34.297737,1.54,-1.013,2.522
34.308235,2.1,-1.168,1.784
34.318733,2.38,-1.602,1.424
34.329231,2.31,-1.224,1.703
34.339729,1.33,-1.131,1.578
34.350227,1.4,-0.839,1.131
34.360725,1.12,-0.928,0.831
34.371205,0.21,-0.803,0.925
34.381685,-0.42,-0.884,0.981
34.392165,-0.77,-0.803,0.925
34.402645,-0.42,-0.941,0.9
34.413125,-0.07,-0.888,1.407
34.423605,-0.49,-0.45,1.342
34.434085,-0.63,-0.174,1.391
34.444565,-1.05,0.353,1.626
34.455045,-1.47,0.434,1.569
34.465525,-1.61,0.929,1.585
34.476005,-1.47,1.586,1.488
34.486485,-1.19,2.551,1.658
34.496965,-1.54,3.415,1.597
34.507451,-2.1,4.221,1.455
34.517937,-2.1,4.89,1.289
34.528423,-2.1,6.541,2.006
34.538909,-2.1,7.847,2.663
34.549395,-2.17,9.801,2.866
34.559881,-1.68,11.582,3.25
34.570367,-1.82,13.041,3.437
34.580853,-1.68,15.024,3.076
34.591339,-0.49,16.877,3.047
34.601825,-0.42,18.491,2.763
34.612311,-0.28,20.263,2.791
34.622797,0.49,22.015,2.531
34.633283,0.77,23.511,2.511
34.643771,1.05,24.89,2.754
34.654259,1.05,26.029,2.742
34.664747,1.12,27.286,2.466
34.675235,1.19,27.854,2.068
34.685723,1.12,28.762,2.157
34.696211,1.26,29.512,1.934
34.706699,0.98,29.735,1.476
34.717187,0.7,30.129,1.261
34.727675,0.7,30.514,0.689
34.738163,0.7,29.897,0.154
34.748651,0.28,29.528,0.231
34.759139,-0.14,28.754,0.592
34.769627,0.14,28.097,0.689
34.780142,0.14,27.229,-0.032
34.790657,0.07,26.337,-0.616
34.801172,-0.07,24.756,-0.113
34.811687,-0.28,23.442,0.082
34.822202,-0.7,22.136,0.634
34.832717,-0.56,20.859,0.622
34.843232,-0.49,19.423,0.297
34.853747,-0.56,17.611,-0.307
34.864262,-0.56,16.317,-1.032
34.874777,-0.35,14.805,-1.725
34.885292,-0.42,13.414,-1.9
34.895807,-0.35,12.144,-1.555
34.906345,-0.35,10.741,-1.66
34.916883,-0.49,9.436,-2.317
34.927421,-0.14,8.024,-2.779
34.937959,-0.42,7.368,-2.681
34.948497,-0.56,6.561,-2.539
34.959035,-0.91,5.709,-2.547
34.969573,-0.91,5.421,-2.527
34.980111,-0.63,5.45,-1.882
34.990649,-0.35,5.539,-1.582
35.001187,-0.28,5.997,-1.359
35.011725,-0.49,6.687,-1.238
35.022263,-0.63,7.587,-0.297
35.032801,-0.21,8.094,-0.35
35.043322,0.07,8.99,-0.192
35.053843,0.35,9.987,0.197
35.064364,0.42,10.754,0.688
35.074885,0.84,11.796,1.227
35.085406,0.77,13.26,2.196
35.095927,1.19,14.424,2.046
35.106448,1.33,16.001,1.968
35.116969,1.96,17.392,2.143
35.12749,2.24,18.844,3.181
35.138011,2.52,20.312,3.724
35.148532,3.29,21.419,3.492
35.159053,3.22,22.773,3.873
35.169574,3.92,23.576,4.157
35.1801,3.64,24.022,4.449
35.190626,3.36,24.16,4.473
35.201152,3.5,24.128,4.254
35.211678,3.92,24.03,3.597
35.222204,4.27,23.779,3.411
35.23273,4.41,23.528,3.224
35.243256,4.69,22.911,2.689
35.253782,4.41,22.181,1.992
35.264308,4.34,21.39,1.639
35.274834,4.55,20.437,1.4
35.28536,4.41,19.732,0.565
35.295886,4.76,18.933,-0.145
35.306438,4.76,18.377,-1.024
35.31699,4.97,17.793,-2.549
35.327542,5.6,17.002,-4.11
35.338094,6.02,16.848,-6.056
35.348646,6.37,16.365,-7.35
35.359198,6.72,15.825,-8.724
35.36975,7.28,15.331,-9.949
35.380302,8.12,14.325,-10.695
35.390854,8.75,13.554,-10.76
35.401406,8.96,12.46,-10.597
35.411958,9.38,11.251,-10.597
35.42251,9.52,10.023,-9.677
35.433086,9.73,8.453,-9.243
35.443662,9.8,6.994,-8.22
35.454238,9.59,5.567,-6.979
35.464814,9.52,4.277,-5.714
35.47539,8.68,3.004,-4.943
35.485966,8.47,2.043,-4.331
35.496542,9.1,0.997,-3.236
35.507118,10.29,0.276,-1.16
35.517694,10.64,-0.134,0.758
35.52827,10.08,-0.876,1.338
35.538846,9.52,-1.233,1.346
35.549422,8.68,-1.472,1.091
35.559998,7.84,-1.877,1.375
35.570554,6.86,-1.877,1.375
35.58111,6.09,-1.727,1.33
35.591666,5.53,-1.447,0.953
35.602222,5.11,-1.614,0.284
35.612778,4.41,-1.318,0.621
35.623334,3.64,-1.476,0.308
35.63389,3.64,-1.334,-0.093
35.644446,2.73,-0.888,0.199
35.655002,1.68,-0.559,0.754
35.665558,1.68,-0.272,0.734
35.676114,2.1,-0.292,0.446
35.68667,3.43,-0.381,0.146
35.697226,4.2,-0.109,0.62
35.707774,5.04,-0.02,0.92
35.718322,6.02,-0.276,1.16
35.72887,6.79,-0.482,1.123
35.739418,7.35,-0.413,1.135
35.749966,7.98,-0.843,1.557
35.760514,8.12,-0.936,1.683
35.771062,7.84,-1.228,2.129
35.78161,7.14,-1.646,2.482
35.792158,6.37,-1.954,2.214
35.802706,6.02,-2.372,2.567
35.813254,6.16,-2.745,3.07
35.823802,6.16,-3.057,3.228
35.834362,6.16,-3.588,3.419
35.844922,6.02,-3.909,3.22
35.855482,6.02,-4.083,3.403
35.866042,5.04,-4.119,3.61
35.876602,3.5,-4.987,2.888
35.887162,2.87,-5.397,2.389
35.897722,2.24,-4.979,2.036
35.908282,1.4,-4.509,2.19
35.918842,1.19,-4.079,1.769
35.929402,1.19,-3.605,1.497
35.939962,1.4,-3.232,0.994
35.950522,2.17,-3.082,0.949
35.961086,2.8,-3.07,0.88
35.97165,3.15,-2.396,1.497
35.982214,2.59,-2.295,1.728
35.992778,2.59,-1.8,1.744
36.003342,2.38,-1.261,1.91
36.013906,1.96,-0.997,2.028
36.02447,1.54,-0.738,1.363
36.035034,1.68,-0.04,0.633
36.045598,2.17,-0.519,0.122
36.056162,2.66,-1.026,0.175
36.066726,2.94,-0.742,0.58
36.07729,3.71,-0.835,0.706
36.087854,4.34,-0.693,0.304
36.098412,5.11,-0.795,0.073
36.10897,5.32,-0.852,-0.008
36.119528,5.53,-0.945,0.118
36.130086,5.25,-1.083,0.093
36.140644,5.39,-1.358,0.045
36.151202,5.18,-1.626,0.353
36.16176,4.9,-1.93,0.868
36.172318,4.34,-2.234,1.383
36.182876,3.43,-2.968,1.111
36.193434,2.8,-3.382,1.039
36.203992,1.68,-3.357,0.901
36.21455,1.19,-3.325,1.12
36.225068,0.42,-3.406,1.176
36.235586,0.14,-3.499,1.302
36.246104,0.07,-3.134,1.651
36.256622,-0.56,-3.438,2.166
36.26714,-0.49,-3.499,2.511
36.277658,-0.49,-3.26,2.766
36.288176,0.07,-2.538,1.898
36.298694,0.35,-2.603,1.46
36.309212,0.7,-2.384,1.428
36.31973,1.19,-2.133,1.614
36.330248,1.54,-2.137,2.04
36.340766,1.54,-2.299,2.154
36.351284,1.96,-2.619,1.955
36.361771,2.38,-2.952,1.825
36.372258,3.29,-2.607,1.886
36.382745,3.5,-2.392,2.279
36.393232,3.5,-2.583,1.748
36.403719,2.87,-3.24,1.845
36.414206,2.17,-3.276,2.052
36.424693,1.68,-2.794,2.137
36.43518,0.7,-2.664,1.805
36.445667,-0.07,-2.984,1.606
36.456154,-0.21,-2.421,1.634
36.466641,-0.63,-2.283,1.659
36.477128,-1.05,-2.039,1.488
36.487615,-1.19,-1.954,1.006
36.498102,-1.26,-1.898,1.087
36.508572,-1.05,-2.003,1.282
36.519042,-1.19,-1.914,1.582
36.529512,-0.98,-1.78,2.032
36.539982,-0.49,-1.845,1.594
36.550452,-0.35,-1.995,1.638
36.560922,-0.42,-2.319,1.866
36.571392,-0.42,-2.595,1.817
36.581862,-0.42,-2.421,1.634
36.592332,-0.28,-3.041,1.525
36.602802,-0.56,-3.086,1.375
36.613272,-0.77,-3.43,1.314
36.623704,-0.98,-3.807,1.035
36.634136,-0.98,-4.083,0.986
36.644568,-0.98,-5.012,0.609
36.655,-1.26,-4.906,0.414
36.665432,-1.4,-4.951,0.264
36.675864,-1.61,-4.919,0.483
36.686296,-1.54,-5.308,0.272
36.696728,-1.54,-5.507,0.593
36.70716,-1.33,-5.58,1.006
36.717592,-1.19,-5.101,1.517
36.728024,-1.26,-4.825,1.566
36.738456,-1.05,-4.813,1.497
36.748888,-0.7,-4.42,1.282
36.759306,-0.28,-3.925,1.298
36.769724,0.07,-3.272,1.627
36.780142,0.35,-3.167,1.432
36.79056,0.49,-2.883,1.837
36.800978,0.84,-2.384,1.428
36.811396,0.63,-2.4,1.922
36.821814,0.63,-2.481,1.979
36.832232,0.42,-2.457,1.841
36.84265,0.07,-2.469,1.91
36.853068,-0.35,-3.069,2.089
36.863486,-0.77,-3.511,2.579
36.873904,-1.05,-4.087,2.62
36.884297,-1.33,-4.882,2.693
36.89469,-1.68,-5.547,2.434
36.905083,-1.82,-6.516,2.689
36.915476,-2.38,-7.412,2.531
36.925869,-2.52,-8.641,2.244
36.936262,-2.59,-9.926,1.875
36.946655,-3.01,-11.167,1.656
36.957048,-3.5,-12.282,1.53
36.967441,-3.85,-13.341,1.486
36.977834,-3.85,-14.464,1.004
36.988227,-3.64,-15.279,0.789
36.99862,-3.85,-16.074,0.862
37.009013,-3.57,-16.544,0.708
37.019445,-3.36,-16.694,0.752
37.029877,-3.29,-16.938,0.923
37.040309,-3.08,-17.294,0.931
37.050741,-2.8,-17.031,1.049
37.061173,-2.8,-16.905,1.142
37.071605,-3.01,-16.56,1.203
37.082037,-2.87,-16.09,1.357
37.092469,-2.87,-15.405,1.904
37.102901,-3.08,-15.08,1.677
37.113333,-3.22,-14.679,1.819
37.123765,-3.64,-14.16,1.697
37.134197,-3.92,-13.308,1.705
37.144629,-4.06,-12.984,1.478
37.155089,-4.2,-12.566,1.125
37.165549,-4.13,-11.865,1.178
37.176009,-4.27,-11.585,0.8
37.186469,-4.48,-11.123,0.598
37.196929,-4.62,-10.486,0.212
37.207389,-4.55,-9.752,0.484
37.217849,-4.76,-9.164,0.374
37.228309,-4.97,-8.313,0.382
37.238769,-5.04,-8.0,0.224
37.249229,-5.04,-7.218,0.22
37.259689,-5.32,-6.675,-0.04
37.270149,-5.67,-6.159,0.264
37.280622,-6.16,-5.527,0.305
37.291095,-6.72,-4.988,0.471
37.301568,-7.28,-4.412,0.43
37.312041,-8.12,-3.937,0.159
37.322514,-8.61,-3.455,0.244
37.332987,-8.26,-3.159,0.58
37.34346,-8.33,-2.883,0.629
37.353933,-8.54,-2.575,0.897
37.364406,-8.61,-2.563,0.828
37.374879,-8.47,-2.084,0.13
37.385352,-7.84,-1.906,-0.478
37.395825,-6.51,-1.719,-0.73
37.406298,-5.04,-1.561,-0.417
37.416771,-3.92,-1.999,-0.353
37.427234,-2.52,-1.748,-0.166
37.437697,-1.47,-1.658,0.134
37.44816,-0.7,-1.837,0.742
37.458623,0.21,-2.117,1.119
37.469086,0.91,-2.202,1.602
37.479549,1.33,-2.088,1.764
37.490012,0.98,-2.214,1.671
37.500475,0.91,-1.776,1.606
37.510938,0.49,-1.743,1.825
37.521401,-0.21,-1.618,1.918
37.531864,-1.26,-1.253,2.267
37.542327,-1.68,-0.819,2.628
37.55279,-1.96,-0.369,2.494
37.563266,-2.1,-0.417,2.77
37.573742,-2.17,-0.531,2.607
37.584218,-2.17,-0.575,2.457
37.594694,-2.59,-0.531,2.607
37.60517,-2.8,-0.863,2.478
37.615646,-2.73,-0.588,2.526
37.626122,-2.87,-0.932,2.466
37.636598,-2.8,-1.03,1.809
37.647074,-2.8,-1.305,1.76
37.65755,-2.66,-1.512,1.724
37.668026,-2.24,-1.918,2.007
37.678502,-2.1,-2.311,2.222
37.688994,-1.82,-2.303,2.579
37.699486,-1.61,-2.798,2.563
37.709978,-1.61,-2.879,2.62
37.72047,-1.12,-2.798,2.563
37.730962,-0.56,-2.737,2.218
37.741454,-0.35,-2.749,2.287
37.751946,-0.14,-2.656,2.162
37.762438,-0.35,-2.348,2.429
37.77293,-0.42,-2.206,2.028
37.783422,-0.49,-1.897,2.295
37.793914,-0.42,-1.691,2.332
37.804406,-0.35,-1.435,2.093
37.814898,-0.14,-1.143,1.646
37.82539,-0.21,-0.645,1.237
37.835898,-0.35,0.024,1.071
37.846406,-0.49,0.3,1.119
37.856914,-0.56,0.544,0.949
37.867422,-0.35,0.925,0.803
37.87793,-0.21,1.5,0.762
37.888438,-0.35,1.683,0.936
37.898946,-0.14,1.821,0.961
37.909454,-0.14,2.052,0.859
37.919962,-0.07,2.283,0.758
37.93047,0.07,2.81,0.993
37.940978,0.28,2.648,1.107
37.951486,0.42,2.668,1.395
37.961998,0.56,2.583,1.877
37.97251,0.84,2.689,1.682
37.983022,1.12,2.445,1.853
37.993534,1.12,2.502,1.934
38.004046,1.26,2.226,1.885
38.014558,1.61,1.687,1.719
38.02507,1.68,1.663,1.857
38.035582,2.1,1.261,1.715
38.046094,2.17,0.998,1.598
38.056606,2.1,1.229,1.496
38.067118,2.31,1.046,1.322
38.07763,2.52,1.184,1.346
38.088142,2.87,1.776,0.811
38.098698,3.08,1.894,0.547
38.109254,3.29,2.157,0.665
38.11981,3.43,2.972,0.88
38.130366,2.87,3.325,1.297
38.140922,3.15,3.828,1.67
38.151478,3.15,4.388,2.124
38.162034,3.5,4.793,1.84
38.17259,4.06,5.608,2.055
38.183146,4.76,6.845,2.7
38.193702,5.32,8.269,3.093
38.204258,6.79,9.704,3.417
38.214814,8.19,11.602,3.538
38.225364,9.59,13.71,3.27
38.235914,10.78,15.036,4.215
38.246464,12.95,16.444,5.103
38.257014,14.14,17.92,6.003
38.267564,14.14,19.4,6.477
38.278114,13.44,20.134,6.749
38.288664,12.53,20.884,6.526
38.299214,11.06,21.586,6.578
38.309764,9.87,22.064,7.089
38.320314,8.47,22.454,7.3
38.330864,7.35,22.859,7.016
38.341414,6.3,22.595,6.898
38.351964,4.9,21.999,6.651
38.362544,3.29,21.399,6.83
38.373124,2.03,20.791,6.651
38.383704,0.56,20.576,6.258
38.394284,0.0,19.623,6.019
38.404864,-0.42,18.65,5.492
38.415444,-0.84,17.514,5.078
38.426024,-1.26,16.48,4.896
38.436604,-1.05,15.272,4.896
38.447184,-1.19,13.767,4.56
38.457764,-0.84,12.595,4.353
38.468344,-0.14,11.265,3.834
38.478924,0.63,10.053,3.052
38.489494,1.05,8.617,2.728
38.500064,1.82,6.768,2.331
38.510634,2.66,5.381,1.731
38.521204,3.29,4.165,1.374
38.531774,3.92,2.786,1.131
38.542344,4.62,1.845,0.823
38.552914,5.18,0.43,0.787
38.563484,5.53,-1.407,0.321
38.574054,5.18,-2.603,0.252
38.584624,5.53,-3.82,-0.105
38.595194,5.46,-4.481,-0.79
38.605764,4.55,-4.777,-1.127
38.616334,4.13,-5.178,-1.268
38.626905,3.85,-5.661,-1.354
38.637476,3.08,-5.434,-1.029
38.648047,2.52,-5.458,-0.891
38.658618,1.96,-4.939,-1.013
38.669189,1.4,-4.817,-0.494
38.67976,0.84,-4.335,-0.409
38.690331,0.63,-3.852,-0.324
38.700902,0.49,-3.041,0.317
38.711473,0.42,-2.628,0.39
38.722044,0.49,-2.372,0.15
38.732615,0.56,-1.983,0.361
38.743186,0.7,-1.792,0.892
38.753757,1.05,-1.658,1.342
38.764324,0.98,-1.739,1.399
38.774891,1.47,-1.439,1.31
38.785458,1.75,-1.553,1.148
38.796025,1.89,-1.723,0.905
38.806592,1.75,-1.46,1.022
38.817159,2.17,-1.748,1.042
38.827726,2.17,-1.748,1.042
38.838293,2.03,-1.52,1.367
38.84886,2.03,-1.5,1.655
38.859427,2.31,-1.902,1.513
38.869994,2.1,-1.877,1.375
38.880561,1.75,-1.488,1.586
38.89114,1.54,-1.683,1.48
38.901719,1.47,-1.752,1.468
38.912298,1.75,-1.881,1.801
38.922877,1.54,-1.958,2.64
38.933456,1.26,-2.303,2.579
38.944035,1.33,-2.737,2.218
38.954614,1.68,-3.021,1.813
38.965193,1.68,-2.721,1.724
38.975772,1.75,-2.81,1.424
38.986351,1.96,-2.907,1.975
38.99693,2.38,-3.171,1.858
39.007509,2.45,-3.211,1.282
39.018077,2.8,-3.67,1.059
39.028645,2.94,-3.876,1.022
39.039213,2.94,-3.524,1.44
39.049781,2.66,-3.305,1.408
39.060349,2.8,-4.063,1.274
39.070917,2.66,-4.842,0.852
39.081485,2.31,-5.085,1.023
39.092053,1.96,-4.923,0.909
39.102621,1.82,-4.769,0.439
39.113189,1.68,-5.024,0.678
39.123757,1.54,-5.0,0.54
39.134325,1.68,-5.284,0.135
39.144893,1.89,-5.734,0.268
39.155433,2.31,-5.928,0.163
39.165973,2.45,-5.535,-0.052
39.176513,2.8,-5.478,0.029
39.187053,2.8,-5.616,0.005
39.197593,2.73,-4.992,-0.312
39.208133,2.59,-5.117,-0.405
39.218673,2.45,-5.061,-0.324
39.229213,2.45,-4.347,-0.34
39.239753,2.1,-3.439,-0.251
39.250293,1.82,-3.13,0.017
39.260833,1.82,-2.924,0.053
39.271373,1.75,-2.161,-0.239
39.281913,2.03,-1.736,-0.235
39.292458,2.38,-1.727,0.122
39.303003,1.96,-1.618,0.71
39.313548,1.89,-1.362,0.471
39.324093,1.75,-1.001,1.245
39.334638,1.96,-1.212,1.634
39.345183,2.03,-1.123,1.934
39.355728,2.24,-1.042,1.878
39.366273,2.03,-0.782,2.421
39.376818,2.17,-0.92,2.397
39.387363,2.24,-0.64,2.019
39.397908,2.03,-1.261,1.91
39.408453,1.68,-1.443,1.736
39.418994,1.26,-1.322,2.255
39.429535,1.19,-1.654,2.125
39.440076,1.05,-1.334,2.324
39.450617,0.91,-1.253,2.267
39.461158,0.98,-1.159,2.141
39.471699,0.49,-0.908,2.328
39.48224,0.49,-0.527,2.182
39.492781,0.56,-0.344,2.356
39.503322,0.49,-0.138,2.392
39.513863,0.35,0.426,2.421
39.524404,0.49,0.556,2.088
39.534945,0.42,0.718,1.975
39.54545,0.14,0.945,2.299
39.555955,0.07,0.45,2.283
39.56646,0.14,0.718,1.975
39.576965,0.21,1.051,2.104
39.58747,0.28,0.754,1.768
39.597975,0.21,0.738,1.054
39.60848,0.42,0.175,1.026
39.618985,0.49,-0.093,1.334
39.62949,0.35,-0.089,2.117
39.639995,0.77,-0.247,1.805
39.6505,1.05,-0.211,1.598
39.661005,1.05,-0.43,1.63
39.67151,1.4,-0.75,1.432
39.682001,1.54,-0.373,0.503
39.692492,1.68,-0.166,0.539
39.702983,2.24,-0.912,0.337
39.713474,2.66,-0.75,0.223
39.723965,2.24,-0.924,0.406
39.734456,2.24,-1.066,0.807
39.744947,2.38,-0.645,1.237
39.755438,2.1,-0.795,1.281
39.765929,1.82,-0.714,1.225
39.77642,1.68,-0.77,1.144
39.786911,1.61,-0.531,1.399
39.797402,1.61,-0.45,1.342
39.807853,1.82,-0.782,1.213
39.818304,1.61,-0.932,1.257
39.828755,1.61,-0.851,1.2
39.839206,1.75,-1.07,1.233
39.849657,1.33,-1.208,1.209
39.860108,1.33,-1.07,1.233
39.870559,1.75,-0.884,0.981
39.88101,1.68,-1.058,1.164
39.891461,1.75,-1.038,1.452
39.901912,1.75,-1.212,1.634
39.912363,1.82,-1.362,1.679
39.922814,1.75,-1.638,1.63
39.933265,1.75,-1.65,1.699
39.943706,1.61,-1.788,1.675
39.954147,1.68,-1.893,1.87
39.964588,1.89,-2.311,2.222
39.975029,2.1,-2.368,2.141
39.98547,1.82,-2.737,2.218
39.995911,1.61,-2.818,2.275
40.006352,1.47,-3.029,2.665
40.016793,1.33,-3.098,2.652
40.027234,1.47,-3.361,2.535
40.037675,1.75,-3.223,2.559
40.048116,1.75,-3.292,2.547
40.058557,2.17,-3.272,2.835
40.06897,2.52,-3.653,2.981
40.079383,2.17,-3.99,3.277
40.089796,1.82,-3.406,3.593
40.100209,1.75,-3.381,3.455
40.110622,1.61,-3.081,3.366
40.121035,1.89,-3.24,3.054
40.131448,2.17,-3.341,2.823
40.141861,2.52,-3.118,2.364
40.152274,2.38,-3.025,2.239
40.162687,2.17,-2.769,1.999
40.1731,1.82,-2.863,2.125
40.183513,1.68,-2.185,2.316
40.193926,1.75,-1.93,2.076
40.204321,1.47,-1.618,1.918
40.214716,1.12,-1.273,1.979
40.225111,1.33,-1.662,1.768
40.235506,0.84,-1.269,1.553
40.245901,0.84,-1.176,1.428
40.256296,0.56,-1.014,1.314
40.266691,0.63,-0.612,1.456
40.277086,0.42,-0.636,1.594
40.287481,0.14,-0.535,1.825
40.297876,0.35,-0.811,1.776
40.308271,0.14,-0.718,1.65
40.318666,-0.21,-0.693,1.513
40.329061,-0.14,-0.462,1.411
40.339456,0.0,-0.726,1.294
40.349851,-0.35,-1.155,1.715
40.360285,-0.42,-1.411,1.955
40.370719,-0.49,-1.666,2.194
40.381153,-0.28,-2.165,2.604
40.391587,0.14,-2.579,2.531
40.402021,0.42,-2.534,2.681
40.412455,0.7,-2.672,2.656
40.422889,1.12,-2.773,2.425
40.433323,1.89,-2.931,2.113
40.443757,2.24,-2.794,2.137
40.454191,2.59,-3.288,2.121
40.464635,2.8,-2.769,1.999
40.475079,2.66,-2.562,2.036
40.485523,3.01,-2.218,2.097
40.495967,2.8,-1.893,1.87
40.506411,2.17,-1.5,1.655
40.516855,1.75,-0.624,1.525
40.527299,1.4,-0.482,1.123
40.537743,0.84,-0.815,0.994
40.548187,0.49,-0.807,1.35
40.558631,-0.21,-1.265,1.127
40.569075,-0.91,-1.589,1.355
40.579519,-1.19,-1.622,1.136
40.589963,-0.63,-1.792,0.892
40.600401,0.35,-2.226,0.532
40.610839,1.61,-2.672,0.24
40.621277,2.8,-3.443,0.175
40.631715,3.85,-3.633,-0.356
40.642153,4.55,-3.755,0.333
40.652591,4.97,-3.597,0.645
40.663029,4.76,-3.714,0.909
40.673467,4.76,-4.335,0.799
40.683905,4.62,-4.404,0.787
40.694343,5.11,-4.416,0.856
40.704781,5.46,-4.245,1.099
40.715219,5.39,-4.189,1.181
40.725657,5.25,-4.258,1.168
40.736122,5.39,-3.974,1.574
40.746587,5.32,-3.69,1.979
40.757052,4.9,-3.588,2.21
40.767517,4.48,-3.487,2.442
40.777982,3.92,-3.528,1.866
40.788447,3.92,-3.369,2.178
40.798912,3.71,-3.483,2.016
40.809377,3.5,-3.434,1.74
40.819842,3.36,-3.422,1.671
40.830307,3.15,-3.941,1.793
40.840772,2.73,-4.448,1.846
40.851237,2.66,-4.85,1.704
40.861701,2.59,-4.874,1.842
40.872165,2.73,-5.871,1.453
40.882629,2.73,-7.064,0.958
40.893093,3.01,-8.361,0.658
40.903557,2.66,-10.109,0.492
40.914021,3.01,-11.828,-0.238
40.924485,3.71,-13.864,-0.383
40.934949,4.2,-14.922,-0.428
40.945413,4.13,-15.908,-0.886
40.955877,4.13,-17.043,-1.299
40.966341,4.27,-17.745,-1.352
40.976805,3.71,-18.596,-1.36
40.987269,3.29,-19.225,-0.618
40.997733,3.22,-19.018,-0.581
41.008215,3.29,-18.499,-0.703
41.018697,3.5,-18.466,-0.484
41.029179,3.08,-17.964,-0.111
41.039661,2.8,-17.595,-0.188
41.050143,2.87,-16.82,-0.549
41.060625,3.01,-16.005,-0.334
41.071107,2.66,-15.397,-0.156
41.081589,2.38,-14.809,-0.266
41.092071,2.38,-13.888,-0.245
41.102553,2.31,-13.102,0.533
41.113035,2.17,-12.136,0.703
41.123517,2.66,-11.423,0.687
41.134007,2.8,-10.705,1.453
41.144497,2.87,-9.756,2.118
41.154987,2.94,-8.543,2.901
41.165477,2.73,-7.761,2.896
41.175967,2.31,-6.565,2.965
41.186457,2.03,-5.413,2.884
41.196947,1.54,-4.415,3.273
41.207437,0.98,-3.231,3.411
41.217927,0.35,-2.023,3.411
41.228417,0.14,-1.034,3.443
41.238907,0.14,-0.559,3.171
41.249397,0.0,-0.385,2.989
41.259887,0.35,-0.056,2.336
41.270419,0.91,-0.142,1.61
41.280951,1.33,-0.405,1.492
41.291483,2.38,-0.567,1.606
41.302015,3.15,-1.289,1.265
41.312547,3.78,-1.942,0.937
41.323079,5.32,-2.429,1.278
41.333611,6.58,-3.378,1.821
41.344143,7.0,-3.556,2.429
41.354675,6.86,-3.819,2.312
41.365207,5.25,-4.164,2.251
41.375739,3.57,-4.493,1.696
41.386271,1.96,-4.513,1.408
41.396813,0.14,-4.537,1.546
41.407355,-0.77,-4.509,2.19
41.417897,-1.47,-4.237,2.665
41.428439,-1.96,-3.901,2.369
41.438981,-1.47,-3.888,2.3
41.449523,-1.26,-3.54,1.935
41.460065,-0.7,-3.203,2.847
41.470607,-1.12,-3.073,2.515
41.481149,-0.63,-2.765,1.574
41.491691,-0.7,-2.68,1.091
41.502233,-0.42,-2.473,1.128
41.512775,0.56,-2.522,1.403
41.523317,1.26,-2.384,1.428
41.533882,2.03,-2.279,1.233
41.544447,2.38,-2.737,1.01
41.555012,2.66,-2.425,0.852
41.565577,2.45,-2.169,0.613
41.576142,2.73,-1.735,0.973
41.586707,2.66,-1.318,0.621
41.597272,3.08,-1.395,0.252
41.607837,3.5,-1.281,0.414
41.618402,3.15,-1.01,0.888
41.628967,2.52,-0.734,0.937
41.639532,1.96,-0.47,1.054
41.650097,1.68,-0.113,1.046
41.66066,1.54,-0.369,1.285
41.671223,1.61,-0.207,1.172
41.681786,2.03,-0.426,1.204
41.692349,2.38,-0.86,0.844
41.702912,2.45,-0.628,0.742
41.713475,3.15,-0.722,0.868
41.724038,3.29,-0.815,0.994
41.734601,3.29,-1.703,1.192
41.745164,3.29,-1.906,0.73
41.755727,3.57,-2.035,1.063
41.76629,4.13,-2.656,0.953
41.776853,4.76,-2.372,1.359
41.787416,4.76,-2.705,1.229
41.797998,4.55,-2.863,0.917
41.80858,4.27,-2.802,0.572
41.819162,3.99,-2.895,0.698
41.829744,4.06,-2.932,0.905
41.840326,4.06,-2.599,1.034
41.850908,4.06,-2.08,0.913
41.86149,4.06,-1.654,0.917
41.872072,4.27,-1.192,0.714
41.882654,4.41,-1.237,0.564
41.893236,4.69,-0.799,0.499
41.903818,4.76,-0.499,0.41
41.9144,4.13,-0.365,0.86
41.924958,3.36,-0.417,1.561
41.935516,3.08,-0.34,1.93
41.946074,2.24,0.231,2.315
41.956632,1.33,1.132,2.048
41.96719,0.7,1.736,1.443
41.977748,0.91,2.214,0.746
41.988306,1.05,3.35,1.159
41.998864,0.98,3.905,0.831
42.009422,0.91,4.773,0.344
42.01998,0.07,5.819,0.457
42.030538,-1.05,7.575,0.98
42.041096,-1.4,9.757,1.507
42.051654,-1.4,11.545,1.041
42.062213,-0.21,13.317,1.069
42.072772,-0.42,14.91,1.705
42.083331,-0.56,16.638,2.792
42.09389,-1.54,18.451,3.396
42.104449,-2.03,19.728,3.408
42.115008,-1.75,20.223,3.424
42.125567,-1.68,21.001,3.845
42.136126,-1.47,21.172,4.089
42.146685,-1.33,21.241,4.101
42.157244,-1.96,21.164,3.732
42.167803,-2.31,20.486,3.541
42.178362,-2.24,19.696,3.189
42.188921,-2.31,18.568,3.132
42.199498,-2.59,17.555,3.237
42.210075,-2.03,16.058,3.258
42.220652,-0.91,14.716,2.808
42.231229,0.14,13.13,2.528
42.241806,1.19,11.212,2.119
42.252383,2.45,9.684,1.921
42.26296,3.78,8.727,2.107
42.273537,5.04,8.009,2.549
42.284114,5.95,7.133,2.679
42.294691,6.23,6.671,2.882
42.305268,6.16,6.184,3.223
42.315845,5.53,5.827,3.231
42.326422,4.2,5.641,3.482
42.336975,2.66,5.434,3.446
42.347528,1.05,5.905,3.6
42.358081,0.07,6.841,3.125
42.368634,-0.84,6.845,2.7
42.379187,-1.47,6.667,2.1
42.38974,-1.61,6.646,1.812
42.400293,-1.75,6.233,1.739
42.410846,-1.89,5.661,1.354
42.421399,-1.61,5.734,0.94
42.431952,-1.54,5.539,0.835
42.442505,-1.4,4.817,0.494
42.453058,-1.4,4.919,0.725
42.463611,-1.54,4.939,1.013
42.474151,-0.98,4.809,1.346
42.484691,-1.26,5.057,1.958
42.495231,-1.47,5.365,2.225
42.505771,-1.54,5.556,2.757
42.516311,-2.31,5.649,2.631
42.526851,-2.52,5.43,2.663
42.537391,-2.45,5.458,3.308
42.547931,-1.89,5.463,4.091
42.558471,-0.91,5.763,4.001
42.569011,0.7,5.86,3.45
42.579551,2.03,5.702,3.138
42.590091,2.66,5.365,3.434
42.600631,2.24,5.114,3.247
42.611168,2.31,5.58,2.619
42.621705,2.17,5.069,1.889
42.632242,1.82,4.874,1.784
42.642779,0.91,4.83,1.633
42.653316,0.77,3.82,0.105
42.663853,1.4,3.216,-0.499
42.67439,2.1,2.518,-0.978
42.684927,3.01,1.5,-0.446
42.695464,3.64,1.058,0.044
42.706001,4.55,0.588,-0.11
42.716538,5.39,-0.361,-0.774
42.727075,5.6,-0.766,-0.491
42.737635,6.02,-1.78,0.823
42.748195,5.6,-2.303,1.371
42.758755,5.46,-3.126,2.008
42.769315,5.81,-3.665,1.841
42.779875,5.39,-3.848,1.667
42.790435,5.18,-3.86,1.736
42.800995,4.69,-4.525,1.477
42.811555,4.48,-4.537,1.546
42.822115,4.55,-4.375,1.432
42.832675,4.48,-4.262,1.594
42.843235,4.48,-3.909,2.012
42.853795,4.13,-3.783,2.105
42.864363,3.43,-4.103,1.906
42.874931,3.15,-3.759,1.967
42.885499,2.94,-3.296,1.764
42.896067,1.96,-2.262,1.947
42.906635,1.19,-1.926,1.651
42.917203,0.98,-2.323,1.083
42.927771,1.54,-2.53,1.047
42.938339,2.1,-3.005,1.318
42.948907,2.45,-3.751,1.116
42.959475,2.73,-3.799,1.391
42.970043,2.52,-4.095,1.055
42.980611,1.61,-4.412,0.43
42.991179,1.47,-4.424,0.499
43.001771,1.82,-4.809,1.071
43.012363,1.68,-4.428,2.134
43.022955,1.96,-4.566,2.109
43.033547,2.94,-4.675,1.521
43.044139,3.92,-4.152,0.974
43.054731,4.41,-4.432,1.351
43.065323,4.62,-4.262,1.594
43.075915,4.55,-4.294,1.375
43.086507,4.9,-3.848,1.667
43.097099,4.41,-3.795,2.174
43.107691,4.06,-4.205,1.675
43.118283,3.71,-4.858,1.347
43.128915,3.36,-5.328,1.193
43.139547,3.36,-5.361,0.974
43.150179,3.29,-5.624,0.856
43.160811,3.15,-6.001,0.577
43.171443,2.87,-6.723,0.236
43.182075,2.52,-7.814,-0.027
43.192707,2.1,-8.803,-0.06
43.203339,1.47,-8.641,-0.173
43.213971,1.33,-8.763,-0.692
43.224603,1.12,-9.071,-0.96
43.235235,0.49,-9.383,-0.802
43.245867,0.07,-8.832,-0.704
43.256494,0.35,-8.775,-0.623
43.267121,-0.28,-8.937,-0.51
43.277748,-0.84,-8.357,-0.976
43.288375,-1.61,-7.753,-1.58
43.299002,-2.38,-7.056,-2.31
43.309629,-3.01,-6.626,-2.732
43.320256,-3.01,-5.685,-2.424
43.330883,-3.64,-4.692,-2.818
43.34151,-4.83,-3.257,-3.702
43.352137,-5.32,-1.266,-4.914
43.362764,-5.95,0.993,-6.435
43.373391,-5.53,3.085,-7.417
43.384018,-4.34,4.707,-8.553
43.39465,-2.31,6.252,-8.849
43.405282,-0.14,7.099,-8.415
43.415914,2.45,7.712,-7.454
43.426546,5.46,8.145,-7.093
43.437178,8.4,7.294,-7.101
43.44781,11.06,6.414,-6.546
43.458442,13.44,5.372,-5.876
43.469074,15.61,4.642,-5.365
43.479706,17.29,3.414,-5.653
43.490338,18.55,2.611,-5.937
43.50097,19.46,1.864,-6.14
43.511602,19.88,0.972,-5.515
43.522234,20.37,0.251,-4.647
43.532866,20.86,-0.39,-3.836
43.543465,20.23,-1.322,-2.579
43.554064,18.62,-2.08,-0.296
43.564663,15.05,-2.388,3.062
43.575262,10.5,-2.274,6.849
43.585861,5.88,-2.549,10.426
43.59646,0.63,-2.456,12.717
43.607059,-3.5,-1.344,14.477
43.617658,-6.51,-0.484,16.05
43.628257,-8.68,0.404,17.059
43.638856,-10.15,0.963,17.513
43.649455,-10.85,1.024,15.96
43.660054,-10.57,0.813,15.141
43.670654,-9.73,0.785,15.705
43.681254,-9.03,0.886,15.936
43.691854,-7.35,0.639,15.324
43.702454,-5.88,0.403,13.434
43.713054,-4.9,0.05,11.808
43.723654,-5.11,-0.424,12.08
43.734254,-6.02,-1.426,12.117
43.744854,-5.74,-1.973,11.593
43.755454,-5.74,-2.46,10.726
43.766054,-5.04,-3.044,10.41
43.776654,-4.34,-3.616,10.024
43.787254,-3.64,-4.788,9.818
43.797852,-2.73,-5.424,8.995
43.80845,-2.38,-6.154,8.297
43.819048,-2.1,-6.56,7.373
43.829646,-2.1,-6.714,6.635
43.840244,-1.68,-6.795,5.483
43.850842,-1.12,-7.181,4.847
43.86144,-0.42,-7.112,4.859
43.872038,0.07,-6.605,4.806
43.882636,0.21,-6.074,4.615
43.893234,-0.07,-4.878,3.476
43.903832,-0.91,-3.114,1.939
43.91443,-1.75,-1.326,-0.945
43.925028,-2.31,0.498,-2.826
43.935613,-2.38,2.74,-5.061
43.946198,-2.03,4.804,-7.896
43.956783,-0.84,6.572,-11.067
43.967368,0.77,8.368,-13.593
43.977953,2.38,9.697,-15.491
43.988538,4.41,10.877,-17.345
43.999123,5.6,11.359,-19.676
44.009708,6.86,11.412,-21.586
44.020293,6.93,10.84,-21.971
44.030878,5.81,9.916,-20.357
44.041463,4.62,9.194,-18.281
44.052048,3.78,7.913,-16.659
44.062587,3.36,7.11,-14.526
44.073126,2.52,5.984,-10.957
44.083665,2.8,5.019,-6.294
44.094204,3.64,3.552,-2.004
44.104743,4.34,2.547,0.876
44.115282,5.04,0.592,3.09
44.125821,4.83,-0.701,5.989
44.13636,4.69,-1.58,8.962
44.146899,5.25,-2.026,11.087
44.157438,5.74,-2.642,11.76
44.167977,6.3,-3.332,11.638
44.178516,6.79,-3.023,11.906
44.189055,7.14,-2.52,12.279
44.199565,7.56,-1.92,12.1
44.210075,8.4,-1.272,11.646
44.220585,8.54,-0.712,10.892
44.231095,8.82,-0.177,10.275
44.241605,9.1,0.666,9.927
44.252115,9.03,0.869,9.18
44.262625,9.17,0.905,7.765
44.273135,8.75,0.933,5.993
44.283645,8.96,0.714,4.817
44.294155,8.75,0.536,4.217
44.304665,8.4,0.094,3.499
44.315175,7.42,-0.401,2.275
44.325651,5.67,-1.07,1.233
44.336127,3.57,-1.845,0.385
44.346603,0.42,-1.663,-0.649
44.357079,-2.87,-0.819,-2.206
44.367555,-6.02,-0.005,-4.408
44.378031,-8.68,1.467,-6.707
44.388507,-10.78,2.886,-8.305
44.398983,-12.67,4.183,-9.214
44.409459,-14.56,5.234,-9.526
44.419935,-16.17,6.511,-10.722
44.430411,-17.36,7.455,-13.257
44.440887,-18.41,9.101,-14.53
44.451363,-18.55,10.119,-13.853
44.461823,-18.41,10.813,-12.949
44.472283,-17.64,11.271,-11.518
44.482743,-16.38,11.28,-9.953
44.493203,-14.77,10.895,-6.964
44.503663,-13.79,10.319,-3.298
44.514123,-12.6,9.562,0.193
44.524583,-12.18,9.112,3.952
44.535043,-11.97,8.768,6.308
44.545503,-11.41,7.921,8.291
44.555963,-10.57,6.635,10.339
44.566423,-10.08,5.411,13.251
44.576883,-8.96,3.964,15.412
44.587323,-8.05,2.622,17.379
44.597763,-6.79,1.896,18.673
44.608203,-5.74,1.166,19.184
44.618643,-4.76,-0.099,19.103
44.629083,-3.57,-1.056,19.29
44.639523,-2.8,-1.648,19.825
44.649963,-1.89,-2.345,20.555
44.660403,-0.84,-3.326,20.88
44.670843,0.28,-4.377,19.984
44.681283,0.98,-4.474,19.327
44.691723,1.89,-4.486,18.187
44.702163,1.89,-4.543,16.898
44.712603,2.31,-4.722,15.089
44.72303,2.59,-4.747,12.81
44.733457,2.8,-4.909,10.507
44.743884,2.66,-4.747,9.185
44.754311,3.57,-4.269,7.279
44.764738,3.85,-4.18,5.163
44.775165,4.83,-4.188,3.597
44.785592,5.95,-4.606,1.533
44.796019,7.35,-5.263,0.422
44.806446,8.89,-5.888,-0.47
