Time,AccelerometerX,AccelerometerY,AccelerometerZ 
-0.392219,-0.431,-9.542,-1.682
-0.38227,-0.392,-9.451,-1.746
-0.372321,-0.392,-9.426,-1.662
-0.362372,-0.314,-9.412,-1.739
-0.352423,-0.275,-9.471,-1.63
-0.342474,-0.235,-9.562,-1.567
-0.332525,-0.196,-9.639,-1.58
-0.322576,-0.275,-9.724,-1.555
-0.312627,-0.235,-9.73,-1.517
-0.302678,-0.196,-9.86,-1.46
-0.292729,-0.235,-9.919,-1.351
-0.28278,-0.235,-9.926,-1.312
-0.272831,-0.235,-9.964,-1.319
-0.262882,-0.235,-10.003,-1.326
-0.252933,-0.275,-10.062,-1.217
-0.242984,-0.235,-10.114,-1.146
-0.233035,-0.314,-10.076,-1.139
-0.223086,-0.275,-10.083,-1.101
-0.213137,-0.275,-10.121,-1.107
-0.203188,-0.314,-10.096,-1.023
-0.19324,-0.392,-10.173,-1.037
-0.183292,-0.314,-10.187,-0.96
-0.173344,-0.314,-10.18,-0.998
-0.163396,-0.353,-10.16,-1.114
-0.153448,-0.353,-10.173,-1.037
-0.1435,-0.314,-10.148,-0.953
-0.133552,-0.353,-10.11,-0.946
-0.123604,-0.353,-10.142,-0.992
-0.113656,-0.314,-10.083,-1.101
-0.103708,-0.314,-10.057,-1.017
-0.09376,-0.275,-10.026,-0.971
-0.083836,-0.235,-10.039,-0.894
-0.073912,-0.235,-10.012,-1.048
-0.063988,-0.235,-10.026,-0.971
-0.054064,-0.275,-10.044,-1.094
-0.04414,-0.235,-10.103,-0.985
-0.034216,-0.196,-10.173,-1.037
-0.024292,-0.235,-10.173,-1.037
-0.014368,-0.235,-10.167,-1.076
-0.004444,-0.235,-10.128,-1.069
0.00548,-0.196,-10.167,-1.076
0.015404,-0.235,-10.128,-1.069
0.025328,-0.196,-10.096,-1.023
0.035252,-0.196,-10.062,-1.217
0.045176,-0.196,-10.037,-1.132
0.055101,-0.235,-10.11,-0.946
0.065026,-0.235,-10.017,-1.248
0.074951,-0.196,-10.062,-1.217
0.084876,-0.196,-10.023,-1.21
0.094801,-0.235,-10.03,-1.171
0.104726,-0.275,-10.03,-1.171
0.114651,-0.275,-9.998,-1.126
0.124576,-0.235,-10.023,-1.21
0.134501,-0.235,-9.998,-1.126
0.144426,-0.275,-9.953,-1.158
0.154351,-0.275,-9.908,-1.189
0.164276,-0.275,-9.921,-1.112
0.174201,-0.314,-9.908,-1.189
0.184128,-0.275,-9.892,-0.828
0.194055,-0.314,-9.717,-0.917
0.203982,-0.353,-9.908,-1.189
0.213909,-0.353,-10.076,-1.139
0.223836,-0.353,-10.051,-1.055
0.233763,-0.314,-10.051,-1.055
0.24369,-0.275,-10.142,-0.992
0.253617,-0.235,-10.121,-1.107
0.263544,-0.235,-10.146,-1.192
0.273471,-0.275,-10.114,-1.146
0.283398,-0.275,-10.083,-1.101
0.293325,-0.275,-10.114,-1.146
0.303252,-0.235,-10.133,-1.269
0.313179,-0.235,-10.133,-1.269
0.323106,-0.235,-10.108,-1.185
0.333029,-0.235,-10.01,-1.287
0.342952,-0.235,-10.037,-1.132
0.352875,-0.235,-10.003,-1.326
0.362798,-0.235,-9.964,-1.319
0.372721,-0.235,-10.01,-1.287
0.382644,-0.235,-10.003,-1.326
0.392567,-0.275,-9.971,-1.28
0.40249,-0.314,-9.971,-1.28
0.412413,-0.275,-9.926,-1.312
0.422336,-0.235,-9.939,-1.235
0.432259,-0.275,-9.835,-1.376
0.442182,-0.275,-9.817,-1.253
0.452108,-0.235,-9.803,-1.33
0.462034,-0.275,-9.719,-1.355
0.47196,-0.314,-9.855,-1.26
0.481886,-0.353,-9.862,-1.221
0.491812,-0.353,-9.901,-1.228
0.501738,-0.353,-9.939,-1.235
0.511664,-0.353,-10.023,-1.21
0.52159,-0.392,-10.023,-1.21
0.531516,-0.392,-10.048,-1.294
0.541442,-0.392,-10.069,-1.178
0.551368,-0.392,-10.114,-1.146
0.561294,-0.392,-10.114,-1.146
0.57122,-0.431,-10.062,-1.217
0.581123,-0.431,-10.089,-1.062
0.591026,-0.392,-10.096,-1.023
0.600929,-0.392,-10.03,-1.171
0.610832,-0.392,-10.051,-1.055
0.620735,-0.392,-9.998,-1.126
0.630638,-0.353,-9.998,-1.126
0.640541,-0.392,-9.967,-1.08
0.650444,-0.392,-10.005,-1.087
0.660347,-0.353,-9.992,-1.164
0.67025,-0.314,-9.973,-1.042
0.680153,-0.275,-9.998,-1.126
0.690056,-0.275,-9.998,-1.126
0.699959,-0.314,-9.998,-1.126
0.709862,-0.275,-10.051,-1.055
0.719765,-0.314,-10.089,-1.062
0.729668,-0.275,-10.078,-0.901
0.739599,-0.275,-10.051,-1.055
0.74953,-0.275,-10.096,-1.023
0.759461,-0.235,-10.089,-1.062
0.769392,-0.235,-10.096,-1.023
0.779323,-0.235,-10.083,-1.101
0.789254,-0.235,-10.076,-1.139
0.799185,-0.235,-10.062,-1.217
0.809116,-0.235,-10.076,-1.139
0.819047,-0.235,-10.069,-1.178
0.828978,-0.275,-10.076,-1.139
0.83889,-0.275,-10.083,-1.101
0.848802,-0.235,-10.044,-1.094
0.858714,-0.235,-9.985,-1.203
0.868626,-0.275,-9.971,-1.28
0.878538,-0.275,-9.971,-1.28
0.88845,-0.235,-10.023,-1.21
0.898362,-0.196,-10.023,-1.21
0.908274,-0.235,-10.062,-1.217
0.918186,-0.275,-10.03,-1.171
0.928098,-0.275,-9.985,-1.203
0.93801,-0.314,-9.978,-1.242
0.947922,-0.314,-9.985,-1.203
0.957834,-0.314,-9.998,-1.126
0.967746,-0.314,-9.985,-1.203
0.977661,-0.314,-9.985,-1.203
0.987576,-0.314,-9.978,-1.242
0.997491,-0.353,-9.998,-1.126
1.007406,-0.353,-9.978,-1.242
1.017321,-0.353,-10.037,-1.132
1.027236,-0.314,-10.037,-1.132
1.037151,-0.314,-10.03,-1.171
1.047066,-0.314,-10.069,-1.178
1.056981,-0.314,-10.101,-1.223
1.066896,-0.314,-10.08,-1.339
1.076811,-0.314,-10.094,-1.262
1.086726,-0.314,-10.01,-1.287
1.096641,-0.235,-10.023,-1.21
1.106579,-0.275,-9.985,-1.203
1.116517,-0.314,-9.992,-1.164
1.126455,-0.275,-9.939,-1.235
1.136393,-0.314,-10.023,-1.21
1.146331,-0.353,-9.985,-1.203
1.156269,-0.353,-10.037,-1.132
1.166207,-0.314,-10.023,-1.21
1.176145,-0.314,-9.998,-1.126
1.186083,-0.314,-9.971,-1.28
1.196021,-0.353,-9.971,-1.28
1.205959,-0.392,-9.978,-1.242
1.215897,-0.392,-9.985,-1.203
1.225835,-0.353,-10.005,-1.087
1.23579,-0.392,-10.005,-1.087
1.245745,-0.392,-9.998,-1.126
1.2557,-0.353,-9.985,-1.203
1.265655,-0.353,-9.985,-1.203
1.27561,-0.314,-9.992,-1.164
1.285565,-0.314,-10.037,-1.132
1.29552,-0.275,-10.023,-1.21
1.305475,-0.275,-10.03,-1.171
1.31543,-0.275,-10.005,-1.087
1.325385,-0.314,-9.985,-1.203
1.33534,-0.314,-9.998,-1.126
1.345295,-0.275,-10.005,-1.087
1.35525,-0.275,-10.03,-1.171
1.365185,-0.235,-10.083,-1.101
1.37512,-0.235,-10.055,-1.255
1.385055,-0.235,-10.062,-1.217
1.39499,-0.275,-10.03,-1.171
1.404925,-0.275,-10.03,-1.171
1.41486,-0.235,-10.044,-1.094
1.424795,-0.275,-10.037,-1.132
1.43473,-0.275,-10.03,-1.171
1.444665,-0.275,-10.023,-1.21
1.4546,-0.275,-10.03,-1.171
1.464535,-0.275,-10.037,-1.132
1.47447,-0.275,-9.992,-1.164
1.484405,-0.235,-10.023,-1.21
1.49434,-0.235,-10.023,-1.21
1.504263,-0.314,-10.017,-1.248
1.514186,-0.275,-10.083,-1.101
1.524109,-0.275,-10.069,-1.178
1.534032,-0.275,-10.062,-1.217
1.543955,-0.275,-10.037,-1.132
1.553878,-0.275,-10.037,-1.132
1.563801,-0.275,-10.03,-1.171
1.573724,-0.235,-10.03,-1.171
1.583647,-0.196,-9.985,-1.203
1.59357,-0.196,-10.037,-1.132
1.603493,-0.196,-9.978,-1.242
1.613416,-0.196,-10.037,-1.132
1.623339,-0.235,-10.044,-1.094
1.63326,-0.157,-10.005,-1.087
1.643181,-0.196,-9.992,-1.164
1.653102,-0.235,-10.023,-1.21
1.663023,-0.196,-9.978,-1.242
1.672944,-0.196,-10.03,-1.171
1.682865,-0.235,-10.03,-1.171
1.692786,-0.235,-9.978,-1.242
1.702707,-0.235,-9.978,-1.242
1.712628,-0.235,-9.992,-1.164
1.722549,-0.235,-10.037,-1.132
1.73247,-0.235,-9.985,-1.203
1.742391,-0.235,-9.998,-1.126
1.752312,-0.235,-10.005,-1.087
1.762251,-0.275,-9.985,-1.203
1.77219,-0.275,-10.005,-1.087
1.782129,-0.275,-9.985,-1.203
1.792068,-0.275,-9.978,-1.242
1.802007,-0.235,-10.023,-1.21
1.811946,-0.235,-10.076,-1.139
1.821885,-0.275,-10.076,-1.139
1.831824,-0.235,-10.037,-1.132
1.841763,-0.196,-10.023,-1.21
1.851702,-0.196,-10.023,-1.21
1.861641,-0.196,-10.017,-1.248
1.87158,-0.235,-10.017,-1.248
1.881519,-0.196,-9.992,-1.164
1.891465,-0.235,-9.996,-1.364
1.901411,-0.196,-9.937,-1.473
1.911357,-0.235,-10.01,-1.287
1.921303,-0.196,-10.01,-1.287
1.931249,-0.196,-10.023,-1.21
1.941195,-0.196,-10.048,-1.294
1.951141,-0.196,-9.985,-1.203
1.961087,-0.157,-9.971,-1.28
1.971033,-0.235,-9.978,-1.242
1.980979,-0.235,-9.985,-1.203
1.990925,-0.235,-10.017,-1.248
2.000871,-0.275,-9.996,-1.364
2.010817,-0.235,-9.971,-1.28
2.020773,-0.353,-9.978,-1.242
2.030729,-0.314,-9.939,-1.235
2.040685,-0.235,-9.908,-1.189
2.050641,-0.235,-9.946,-1.196
2.060597,-0.275,-9.971,-1.28
2.070553,-0.275,-9.985,-1.203
2.080509,-0.275,-10.01,-1.287
2.090465,-0.275,-10.023,-1.21
2.100421,-0.275,-9.978,-1.242
2.110377,-0.275,-9.971,-1.28
2.120333,-0.275,-9.985,-1.203
2.130289,-0.275,-10.017,-1.248
2.140245,-0.275,-10.023,-1.21
2.150183,-0.235,-9.978,-1.242
2.160121,-0.314,-9.958,-1.357
2.170059,-0.275,-10.083,-1.101
2.179997,-0.275,-10.055,-1.255
2.189935,-0.275,-10.003,-1.326
2.199873,-0.275,-10.01,-1.287
2.209811,-0.275,-10.069,-1.178
2.219749,-0.235,-10.069,-1.178
2.229687,-0.275,-10.076,-1.139
2.239625,-0.275,-10.062,-1.217
2.249563,-0.275,-10.101,-1.223
2.259501,-0.275,-10.048,-1.294
2.269439,-0.275,-10.08,-1.339
2.279377,-0.275,-10.171,-1.276
2.289322,-0.275,-10.094,-1.262
2.299267,-0.235,-10.105,-1.423
2.309212,-0.275,-10.126,-1.307
2.319157,-0.275,-10.119,-1.346
2.329102,-0.235,-10.042,-1.332
2.339047,-0.275,-10.042,-1.332
2.348992,-0.275,-10.073,-1.378
2.358937,-0.314,-10.073,-1.378
2.368882,-0.353,-10.028,-1.41
2.378827,-0.314,-9.937,-1.473
2.388772,-0.314,-9.86,-1.46
2.398717,-0.314,-9.937,-1.473
2.408662,-0.314,-9.912,-1.389
2.418595,-0.314,-9.905,-1.428
2.428528,-0.314,-9.855,-1.937
2.438461,-0.235,-9.917,-1.589
2.448394,-0.196,-9.976,-1.48
2.458327,-0.235,-9.892,-1.505
2.46826,-0.235,-9.801,-1.569
2.478193,-0.235,-9.755,-1.601
2.488126,-0.196,-9.73,-1.517
2.498059,-0.157,-9.737,-1.478
2.507992,-0.157,-9.737,-1.478
2.517925,-0.118,-9.624,-1.219
2.527858,-0.118,-9.569,-1.528
2.537791,-0.118,-9.68,-1.348
2.547724,-0.157,-9.719,-1.355
2.557657,-0.118,-9.878,-1.582
2.567572,-0.118,-9.953,-1.158
2.577487,-0.078,-9.983,-1.442
2.587402,-0.078,-10.046,-1.532
2.597317,-0.196,-10.067,-1.417
2.607232,-0.353,-10.096,-1.701
2.617147,-0.431,-9.967,-1.08
2.627062,-0.549,-9.821,-1.453
2.636977,-0.588,-9.792,-1.169
2.646892,-0.667,-9.733,-1.278
2.656807,-0.667,-9.821,-1.453
2.666722,-0.667,-9.887,-1.305
2.676637,-0.588,-10.148,-1.63
2.686552,-0.51,-10.337,-1.464
2.696467,-0.392,-10.385,-1.194
2.706371,-0.275,-10.239,-1.566
2.716275,-0.196,-10.273,-1.373
2.726179,-0.157,-10.196,-1.36
2.736083,-0.118,-10.171,-1.276
2.745987,-0.118,-10.035,-1.371
2.755891,-0.118,-9.951,-1.396
2.765795,-0.157,-9.735,-1.039
2.775699,-0.118,-9.746,-1.201
2.785603,-0.118,-9.855,-1.26
2.795507,-0.078,-9.855,-1.26
2.805411,-0.118,-10.037,-1.132
2.815315,-0.157,-10.158,-1.353
2.825219,-0.196,-10.255,-1.251
2.835101,-0.196,-10.23,-1.167
2.844983,-0.235,-10.148,-1.63
2.854865,-0.235,-9.914,-0.474
2.864747,-0.392,-9.955,-1.596
2.874629,-0.392,-10.051,-1.055
2.884511,-0.471,-9.96,-1.119
2.894393,-0.51,-9.942,-0.996
2.904275,-0.549,-9.985,-1.203
2.914157,-0.588,-9.987,-0.964
2.924039,-0.667,-10.012,-1.048
2.933921,-0.667,-10.051,-1.055
2.943803,-0.706,-9.998,-1.126
2.953685,-0.706,-10.069,-1.178
2.963567,-0.706,-10.089,-1.062
2.973449,-0.667,-10.164,-1.314
2.983331,-0.667,-10.087,-1.301
2.993213,-0.667,-10.012,-1.048
3.003095,-0.667,-9.946,-1.196
3.012977,-0.628,-9.998,-1.126
3.022859,-0.628,-10.044,-1.094
3.032741,-0.628,-9.942,-1.673
3.042623,-0.667,-10.18,-1.676
3.052505,-0.667,-10.364,-1.31
3.062387,-0.549,-10.087,-0.623
3.072269,-0.628,-9.826,-0.976
3.082151,-0.667,-9.835,-1.376
3.092033,-0.667,-9.91,-1.628
3.101928,-0.588,-10.046,-1.532
3.111823,-0.549,-9.903,-0.989
3.121718,-0.51,-9.78,-1.685
3.131613,-0.51,-9.858,-1.698
3.141508,-0.51,-9.933,-1.273
3.151403,-0.471,-9.958,-1.357
3.161298,-0.431,-9.987,-1.642
3.171193,-0.431,-9.971,-1.28
3.181088,-0.431,-9.937,-1.473
3.190983,-0.431,-9.969,-1.519
3.200878,-0.392,-9.983,-1.442
3.210773,-0.431,-9.964,-1.319
3.220668,-0.431,-9.989,-1.403
3.230563,-0.392,-10.053,-1.494
3.240453,-0.392,-10.105,-1.423
3.250343,-0.392,-10.06,-1.455
3.260233,-0.353,-9.996,-1.364
3.270123,-0.392,-9.958,-1.357
3.280013,-0.392,-9.962,-1.557
3.289903,-0.392,-9.937,-1.473
3.299793,-0.392,-9.98,-1.68
3.309683,-0.392,-9.969,-1.519
3.319573,-0.392,-9.942,-1.673
3.329463,-0.353,-9.962,-1.557
3.339353,-0.353,-9.935,-1.712
3.349243,-0.353,-9.935,-1.712
3.359133,-0.392,-10.039,-1.571
3.369041,-0.471,-9.91,-1.628
3.378949,-0.51,-9.833,-1.614
3.388857,-0.471,-9.776,-1.485
3.398765,-0.471,-9.751,-1.401
3.408673,-0.471,-9.737,-1.478
3.418581,-0.471,-9.783,-1.446
3.428489,-0.51,-9.873,-1.382
3.438397,-0.549,-9.912,-1.389
3.448305,-0.549,-9.899,-1.467
3.458213,-0.549,-9.885,-1.544
3.468121,-0.588,-9.944,-1.435
3.478029,-0.549,-9.976,-1.48
3.487937,-0.51,-9.994,-1.603
3.497845,-0.471,-9.869,-1.86
3.507778,-0.431,-10.005,-1.764
3.517711,-0.471,-10.083,-1.778
3.527644,-0.431,-10.026,-1.648
3.537577,-0.431,-9.917,-1.589
3.54751,-0.392,-9.896,-1.705
3.557443,-0.392,-9.928,-1.751
3.567376,-0.392,-9.942,-1.673
3.577309,-0.431,-9.914,-1.828
3.587242,-0.431,-9.896,-1.705
3.597175,-0.431,-9.921,-1.789
3.607108,-0.471,-9.883,-1.782
3.617041,-0.51,-9.805,-1.769
3.626974,-0.549,-9.774,-1.723
3.636892,-0.588,-9.819,-1.692
3.64681,-0.667,-9.892,-1.505
3.656728,-0.667,-9.917,-1.589
3.666646,-0.667,-9.949,-1.635
3.676564,-0.628,-9.994,-1.603
3.686482,-0.588,-9.976,-1.48
3.6964,-0.588,-10.001,-1.564
3.706318,-0.588,-10.046,-1.532
3.716236,-0.588,-9.996,-1.364
3.726154,-0.549,-9.969,-1.519
3.736072,-0.51,-10.033,-1.61
3.74599,-0.471,-10.046,-1.532
3.755908,-0.51,-10.035,-1.371
3.765826,-0.51,-9.969,-1.519
3.775769,-0.51,-10.039,-1.571
3.785712,-0.51,-10.039,-1.571
3.795655,-0.549,-10.046,-1.532
3.805598,-0.51,-9.989,-1.403
3.815541,-0.549,-9.969,-1.519
3.825484,-0.549,-10.053,-1.494
3.835427,-0.588,-10.085,-1.539
3.84537,-0.588,-10.085,-1.539
3.855313,-0.588,-10.087,-1.301
3.865256,-0.588,-10.064,-1.655
3.875199,-0.549,-10.117,-1.585
3.885142,-0.549,-10.128,-1.746
3.895085,-0.549,-10.18,-1.676
3.905028,-0.588,-10.155,-1.591
3.914977,-0.549,-10.162,-1.553
3.924926,-0.588,-10.114,-1.823
3.934875,-0.588,-10.198,-1.798
3.944824,-0.588,-10.453,-2.162
3.954773,-0.51,-10.56,-1.782
3.964722,-0.471,-10.357,-1.348
3.974671,-0.51,-10.044,-1.771
3.98462,-0.549,-10.044,-1.771
3.994569,-0.588,-10.271,-2.289
4.004518,-0.51,-10.426,-2.316
4.014467,-0.51,-10.469,-1.846
4.024416,-0.51,-10.176,-1.476
4.034365,-0.51,-9.996,-2.041
4.044297,-0.471,-10.224,-2.559
4.054229,-0.431,-10.446,-2.2
4.064161,-0.392,-10.276,-1.812
4.074093,-0.392,-10.042,-2.01
4.084025,-0.392,-9.928,-2.428
4.093957,-0.353,-10.035,-2.725
4.103889,-0.353,-10.108,-2.539
4.113821,-0.353,-10.044,-2.448
4.123753,-0.353,-9.91,-2.305
4.133685,-0.314,-9.74,-2.594
4.143617,-0.314,-9.642,-2.696
4.153549,-0.275,-9.531,-2.875
4.163481,-0.275,-9.374,-3.087
4.173413,-0.275,-9.335,-3.08
4.183341,-0.235,-9.235,-3.421
4.193269,-0.235,-9.165,-3.369
4.203197,-0.196,-9.124,-3.6
4.213125,-0.196,-9.04,-3.625
4.223053,-0.275,-9.031,-3.903
4.232981,-0.235,-9.038,-3.864
4.242909,-0.235,-8.985,-3.934
4.252837,-0.235,-8.933,-4.005
4.262765,-0.235,-8.888,-4.037
4.272693,-0.196,-8.815,-4.223
4.282621,-0.196,-8.867,-4.153
4.292549,-0.196,-8.801,-4.3
4.302477,-0.196,-8.84,-4.307
4.312405,-0.118,-8.854,-4.23
4.322335,-0.157,-8.867,-4.153
4.332265,-0.196,-8.781,-4.416
4.342195,-0.118,-8.826,-4.384
4.352125,-0.118,-8.799,-4.539
4.362055,-0.157,-8.838,-4.546
4.371985,-0.157,-8.851,-4.468
4.381915,-0.196,-8.851,-4.468
4.391845,-0.157,-8.876,-4.553
4.401775,-0.196,-8.897,-4.437
4.411705,-0.235,-8.929,-4.482
4.421635,-0.196,-8.935,-4.443
4.431565,-0.275,-8.89,-4.475
4.441495,-0.353,-8.942,-4.405
4.451431,-0.392,-8.87,-4.591
4.461367,-0.431,-8.96,-4.528
4.471303,-0.51,-9.038,-4.541
4.481239,-0.549,-9.213,-4.452
4.491175,-0.549,-9.188,-4.368
4.501111,-0.51,-8.545,-4.175
4.511047,-0.471,-8.622,-4.189
4.520983,-0.431,-8.358,-4.103
4.530919,-0.353,-8.438,-3.878
4.540855,-0.314,-8.701,-3.964
4.550791,-0.314,-8.933,-4.005
4.560727,-0.314,-8.942,-3.728
4.570663,-0.235,-8.915,-3.882
4.580637,-0.196,-9.058,-3.748
4.590611,-0.078,-9.126,-3.362
4.600585,-0.039,-9.303,-3.712
4.610559,-0.039,-9.469,-3.9
4.620533,-0.039,-9.651,-3.773
4.630507,0.039,-9.781,-3.039
4.640481,-0.078,-9.628,-3.45
4.650455,-0.078,-9.742,-3.709
4.660429,-0.039,-9.783,-3.478
4.670403,-0.078,-9.769,-3.555
4.680377,-0.118,-9.797,-3.4
4.690351,-0.118,-9.828,-3.446
4.700325,-0.118,-9.79,-3.439
4.710284,-0.118,-9.822,-3.484
4.720243,-0.118,-9.867,-3.453
4.730202,-0.235,-9.724,-2.91
4.740161,-0.196,-9.631,-3.212
4.75012,-0.196,-9.662,-3.257
4.760079,-0.196,-9.624,-3.25
4.770038,-0.235,-9.606,-3.128
4.779997,-0.235,-9.535,-3.075
4.789956,-0.235,-9.472,-2.985
4.799915,-0.196,-9.353,-3.203
4.809874,-0.157,-9.406,-3.132
4.819833,-0.235,-9.497,-3.069
4.829792,-0.235,-9.553,-3.198
4.839751,-0.235,-9.567,-3.121
4.84971,-0.196,-9.606,-3.128
4.859655,-0.196,-9.678,-2.941
4.8696,-0.196,-9.742,-3.032
4.879545,-0.157,-9.762,-2.916
4.88949,-0.196,-9.653,-2.857
4.899435,-0.157,-9.706,-2.787
4.90938,-0.196,-9.744,-2.794
4.919325,-0.196,-9.808,-2.885
4.92927,-0.196,-9.835,-2.73
4.939215,-0.196,-9.817,-2.607
4.94916,-0.157,-9.867,-2.775
4.959105,-0.157,-9.908,-2.544
4.96905,-0.118,-9.908,-2.544
4.978995,-0.157,-9.901,-2.582
4.988954,-0.196,-9.887,-2.66
4.998913,-0.157,-9.928,-2.428
5.008872,-0.196,-9.96,-2.473
5.018831,-0.235,-9.921,-2.466
5.02879,-0.196,-9.896,-2.382
5.038749,-0.235,-9.896,-2.382
5.048708,-0.196,-9.812,-2.407
5.058667,-0.196,-9.865,-2.337
5.068626,-0.196,-9.91,-2.305
5.078585,-0.196,-9.924,-2.228
5.088544,-0.196,-9.865,-2.337
5.098503,-0.157,-9.801,-2.246
5.108462,-0.118,-9.878,-2.26
5.118421,-0.118,-9.91,-2.305
5.128384,-0.157,-9.892,-2.182
5.138347,-0.078,-9.837,-2.491
5.14831,0.0,-9.858,-2.375
5.158273,0.0,-9.969,-2.196
5.168236,-0.039,-9.974,-2.396
5.178199,-0.039,-10.008,-2.203
5.188162,-0.078,-9.924,-2.228
5.198125,-0.039,-9.93,-2.189
5.208088,-0.078,-9.937,-2.151
5.218051,-0.078,-9.892,-2.182
5.228014,-0.078,-9.91,-2.305
5.237977,-0.078,-9.878,-2.26
5.24794,-0.078,-9.885,-2.221
5.257903,-0.078,-9.892,-2.182
5.26787,-0.118,-9.917,-2.266
5.277837,-0.118,-9.899,-2.144
5.287804,-0.118,-9.937,-2.151
5.297771,-0.118,-9.93,-2.189
5.307738,-0.118,-9.937,-2.151
5.317705,-0.157,-9.905,-2.105
5.327672,-0.118,-9.86,-2.137
5.337639,-0.118,-9.899,-2.144
5.347606,-0.157,-9.86,-2.137
5.357573,-0.157,-9.944,-2.112
5.36754,-0.157,-9.944,-2.112
5.377507,-0.157,-9.944,-2.112
5.387474,-0.157,-9.912,-2.066
5.397426,-0.157,-9.951,-2.073
5.407378,-0.118,-9.926,-1.989
5.41733,-0.157,-9.899,-2.144
5.427282,-0.157,-9.971,-1.957
5.437234,-0.157,-9.971,-1.957
5.447186,-0.157,-9.926,-1.989
5.457138,-0.157,-9.944,-2.112
5.46709,-0.118,-9.944,-2.112
5.477042,-0.118,-9.964,-1.996
5.486994,-0.118,-9.919,-2.028
5.496946,-0.157,-9.912,-2.066
5.506898,-0.118,-9.905,-2.105
5.51685,-0.157,-9.867,-2.098
5.526802,-0.157,-9.828,-2.091
5.53672,-0.157,-9.821,-2.13
5.546638,-0.118,-9.801,-2.246
5.556556,-0.118,-9.783,-2.123
5.566474,-0.118,-9.73,-2.194
5.576392,-0.118,-9.73,-2.194
5.58631,-0.157,-9.73,-2.194
5.596228,-0.118,-9.737,-2.155
5.606146,-0.157,-9.769,-2.201
5.616064,-0.157,-9.776,-2.162
5.625982,-0.196,-9.783,-2.123
5.6359,-0.196,-9.73,-2.194
5.645818,-0.157,-9.712,-2.071
5.655736,-0.157,-9.699,-2.148
5.665662,-0.157,-9.699,-2.148
5.675588,-0.157,-9.699,-2.148
5.685514,-0.157,-9.712,-2.071
5.69544,-0.196,-9.687,-1.987
5.705366,-0.196,-9.628,-2.096
5.715292,-0.275,-9.649,-1.98
5.725218,-0.314,-9.585,-1.889
5.735144,-0.392,-9.446,-1.546
5.74507,-0.431,-9.34,-1.926
5.754996,-0.549,-9.485,-2.23
5.764922,-0.588,-9.687,-1.987
5.774848,-0.588,-9.676,-1.148
5.784774,-0.588,-9.401,-0.901
5.7947,-0.667,-9.403,-1.339
5.804626,-0.706,-9.803,-2.007
5.814553,-0.706,-10.255,-1.928
5.82448,-0.667,-10.458,-1.685
5.834407,-0.588,-10.471,-0.93
5.844334,-0.51,-10.239,-0.889
5.854261,-0.471,-10.112,-0.708
5.864188,-0.431,-10.032,-0.933
5.874115,-0.353,-10.055,-1.255
5.884042,-0.392,-10.126,-1.307
5.893969,-0.392,-10.203,-1.321
5.903896,-0.314,-10.242,-1.328
5.913823,-0.275,-10.26,-1.451
5.92376,-0.314,-10.253,-1.489
5.933697,-0.196,-10.11,-0.946
5.943634,-0.157,-9.91,-0.951
5.953571,-0.157,-9.933,-1.273
5.963508,-0.118,-9.896,-1.028
5.973445,-0.118,-9.805,-1.092
5.983382,-0.118,-9.721,-1.117
5.993319,-0.078,-9.696,-1.033
6.003256,-0.039,-9.689,-1.071
6.013193,-0.039,-9.664,-0.987
6.02313,-0.039,-9.651,-1.064
6.033067,0.0,-9.646,-0.864
6.043004,-0.039,-9.646,-0.864
6.052914,-0.078,-9.673,-0.71
6.062824,-0.078,-9.701,-0.555
6.072734,-0.078,-9.714,-0.478
6.082644,-0.118,-9.83,-0.499
6.092554,-0.157,-9.96,-0.442
6.102464,-0.196,-10.173,-0.36
6.112374,-0.196,-10.314,-0.464
6.122284,-0.235,-10.516,-0.221
6.132194,-0.235,-10.619,-0.319
6.142104,-0.235,-10.691,-0.133
6.152014,-0.235,-10.698,-0.094
6.161924,-0.235,-10.705,-0.055
6.171834,-0.157,-10.607,-0.158
6.181744,-0.157,-10.557,0.011
6.191652,-0.118,-10.466,-0.053
6.20156,-0.078,-10.312,-0.026
6.211468,-0.078,-10.287,0.058
6.221376,-0.078,-10.21,0.072
6.231284,-0.078,-10.189,-0.044
6.241192,-0.039,-10.196,-0.005
6.2511,-0.039,-10.196,-0.005
6.261008,0.0,-10.203,0.033
6.270916,0.0,-10.235,-0.012
6.280824,0.0,-10.241,0.026
6.290732,0.0,-10.235,-0.012
6.30064,-0.039,-10.21,0.072
6.310548,0.0,-10.228,-0.051
6.320456,0.0,-10.235,-0.012
6.330364,-0.039,-10.273,-0.019
6.340287,-0.039,-10.182,-0.083
6.35021,-0.039,-10.216,0.11
6.360133,-0.039,-10.189,-0.044
6.370056,-0.078,-10.189,-0.044
6.379979,-0.078,-10.189,-0.044
6.389902,-0.078,-10.169,-0.16
6.399825,-0.078,-10.169,-0.16
6.409748,-0.118,-10.176,-0.121
6.419671,-0.118,-10.162,-0.199
6.429594,-0.118,-10.148,-0.276
6.439517,-0.118,-10.11,-0.269
6.44946,-0.078,-10.064,-0.301
6.459403,-0.118,-10.019,-0.333
6.469346,-0.118,-10.026,-0.294
6.479289,-0.118,-9.921,-0.435
6.489232,-0.118,-9.967,-0.403
6.499175,-0.118,-9.921,-0.435
6.509118,-0.118,-9.907,-0.512
6.519061,-0.118,-9.869,-0.505
6.529004,-0.118,-9.855,-0.583
6.538947,-0.118,-9.817,-0.576
6.54889,-0.078,-9.758,-0.685
6.558833,-0.078,-9.771,-0.608
6.568776,-0.078,-9.771,-0.608
6.578698,-0.118,-9.767,-0.408
6.58862,-0.078,-9.673,-0.71
6.598542,-0.118,-9.762,-0.208
6.608464,-0.039,-9.746,-0.524
6.618386,0.0,-9.753,-0.485
6.628308,0.0,-9.753,-0.485
6.63823,0.0,-9.792,-0.492
6.648152,0.0,-9.798,-0.453
6.658074,0.0,-9.798,-0.453
6.667996,-0.039,-9.819,-0.337
6.677918,0.0,-9.805,-0.414
6.68784,0.039,-9.839,-0.221
6.697762,0.0,-9.755,-0.246
6.707684,0.0,-9.755,-0.246
6.71759,-0.039,-9.787,-0.292
6.727496,-0.078,-9.782,-0.092
6.737402,-0.078,-9.814,-0.137
6.747308,-0.118,-9.796,-0.015
6.757214,-0.118,-9.757,-0.008
6.76712,-0.118,-9.726,0.038
6.777026,-0.157,-9.721,0.238
6.786932,-0.157,-9.651,0.29
6.796838,-0.235,-9.689,0.283
6.806744,-0.275,-9.678,0.444
6.81665,-0.275,-9.776,0.547
6.826556,-0.314,-9.891,0.526
6.836462,-0.235,-9.885,0.488
6.846366,-0.275,-9.923,0.481
6.85627,-0.235,-9.964,0.713
6.866174,-0.275,-9.971,0.751
6.876078,-0.235,-10.037,0.899
6.885982,-0.235,-10.037,0.899
6.895886,-0.235,-10.078,1.131
6.90579,-0.196,-10.084,1.169
6.915694,-0.196,-10.084,1.169
6.925598,-0.196,-10.073,1.331
6.935502,-0.118,-10.023,1.499
6.945406,-0.118,-10.055,1.453
6.95531,-0.118,-10.05,1.653
6.965214,-0.118,-10.032,1.776
6.975135,-0.039,-10.032,1.776
6.985056,0.0,-10.021,1.937
6.994977,0.078,-10.007,1.86
7.004898,0.157,-9.996,2.021
7.014819,0.196,-10.009,2.099
7.02474,0.275,-10.062,2.169
7.034661,0.314,-10.082,2.285
7.044582,0.353,-10.173,2.349
7.054503,0.392,-10.148,2.433
7.064424,0.431,-10.214,2.581
7.074345,0.392,-10.2,2.503
7.084266,0.431,-10.221,2.619
7.094187,0.392,-10.221,2.619
7.104093,0.431,-10.214,2.581
7.113999,0.471,-10.137,2.594
7.123905,0.51,-10.05,2.331
7.133811,0.51,-10.014,2.576
7.143717,0.51,-10.027,2.653
7.153623,0.471,-9.943,2.628
7.163529,0.471,-9.95,2.667
7.173435,0.471,-9.88,2.719
7.183341,0.471,-9.809,2.771
7.193247,0.471,-9.743,2.624
7.203153,0.471,-9.712,2.669
7.213059,0.471,-9.712,2.669
7.222965,0.471,-9.698,2.592
7.232871,0.549,-9.666,2.637
7.242789,0.51,-9.616,2.805
7.252707,0.549,-9.603,2.728
7.262625,0.588,-9.55,2.658
7.272543,0.549,-9.557,2.696
7.282461,0.549,-9.609,2.767
7.292379,0.51,-9.648,2.76
7.302297,0.471,-9.648,2.76
7.312215,0.51,-9.687,2.753
7.322133,0.431,-9.764,2.74
7.332051,0.431,-9.841,2.726
7.341969,0.392,-9.946,2.867
7.351887,0.353,-10.023,2.853
7.361805,0.353,-10.062,2.846
7.371743,0.314,-10.114,2.917
7.381681,0.196,-10.171,2.787
7.391619,0.235,-10.268,2.89
7.401557,0.235,-10.321,2.96
7.411495,0.275,-10.327,2.999
7.421433,0.275,-10.307,2.883
7.431371,0.275,-10.275,2.928
7.441309,0.235,-10.139,2.833
7.451247,0.235,-10.016,2.815
7.461185,0.196,-9.925,2.751
7.471123,0.157,-9.855,2.803
7.481061,0.157,-9.834,2.687
7.490999,0.157,-9.866,2.642
7.500918,0.157,-9.841,2.726
7.510837,0.157,-9.755,2.462
7.520756,0.078,-9.716,2.469
7.530675,0.078,-9.703,2.392
7.540594,0.039,-9.741,2.385
7.550513,0.0,-9.766,2.301
7.560432,-0.078,-9.728,2.308
7.570351,-0.039,-9.818,2.371
7.58027,-0.078,-9.85,2.326
7.590189,-0.078,-9.907,2.196
7.600108,-0.157,-9.925,2.074
7.610027,-0.196,-10.009,2.099
7.619946,-0.275,-10.087,2.085
7.629865,-0.314,-10.053,1.892
7.639772,-0.353,-10.132,2.117
7.649679,-0.353,-10.13,1.878
7.659586,-0.392,-10.162,1.833
7.669493,-0.51,-10.175,1.91
7.6794,-0.549,-10.168,1.872
7.689307,-0.588,-10.18,1.71
7.699214,-0.628,-10.225,1.742
7.709121,-0.628,-10.271,1.774
7.719028,-0.667,-10.121,1.601
7.728935,-0.667,-10.062,1.492
7.738842,-0.667,-10.087,1.408
7.748749,-0.628,-10.073,1.331
7.758656,-0.588,-10.073,1.331
7.768563,-0.588,-10.028,1.299
7.778472,-0.549,-10.053,1.215
7.788381,-0.549,-10.084,1.169
7.79829,-0.471,-10.0,1.144
7.808199,-0.431,-10.005,0.944
7.818108,-0.431,-9.9,0.804
7.828017,-0.392,-9.835,0.656
7.837926,-0.353,-9.776,0.547
7.847835,-0.314,-9.737,0.554
7.857744,-0.275,-9.723,0.476
7.867653,-0.275,-9.716,0.438
7.877562,-0.196,-9.682,0.244
7.887471,-0.196,-9.703,0.36
7.8974,-0.235,-9.651,0.29
7.907329,-0.275,-9.544,-0.09
7.917258,-0.196,-9.473,-0.037
7.927187,-0.235,-9.376,-0.14
7.937116,-0.235,-9.407,-0.185
7.947045,-0.235,-9.355,-0.255
7.956974,-0.196,-9.36,-0.455
7.966903,-0.235,-9.385,-0.54
7.976832,-0.196,-9.43,-0.508
7.986761,-0.196,-9.487,-0.637
7.99669,-0.157,-9.473,-0.714
8.006619,-0.235,-9.467,-0.753
8.016548,-0.275,-9.473,-0.714
8.026493,-0.275,-9.421,-0.785
8.036438,-0.235,-9.421,-0.785
8.046383,-0.275,-9.439,-0.908
8.056328,-0.235,-9.435,-0.708
8.066273,-0.235,-9.487,-0.637
8.076218,-0.235,-9.592,-0.496
8.086163,-0.235,-9.714,-0.478
8.096108,-0.235,-9.851,-0.383
8.106053,-0.235,-10.057,-0.339
8.115998,-0.235,-10.18,-0.321
8.125943,-0.235,-10.291,-0.142
8.135888,-0.314,-10.266,-0.058
8.145833,-0.275,-10.223,0.149
8.155767,-0.353,-10.126,0.047
8.165701,-0.353,-10.037,0.222
8.175635,-0.392,-9.948,0.397
8.185569,-0.431,-9.807,0.501
8.195503,-0.471,-9.776,0.547
8.205437,-0.471,-9.782,0.585
8.215371,-0.51,-9.835,0.656
8.225305,-0.471,-9.835,0.656
8.235239,-0.392,-9.848,0.733
8.245173,-0.314,-9.907,0.842
8.255107,-0.235,-9.875,0.888
8.265041,-0.157,-9.889,0.965
8.274975,-0.118,-9.921,0.919
8.284909,0.0,-9.928,0.958
8.294843,0.039,-9.939,0.797
8.304777,0.078,-10.005,0.944
8.314711,0.196,-10.078,1.131
8.324645,0.235,-10.187,1.072
8.334579,0.196,-10.239,1.142
8.344513,0.275,-10.309,1.09
8.354447,0.275,-10.548,1.088
8.364381,0.235,-10.471,1.101
8.374315,0.235,-10.471,1.101
8.384249,0.196,-10.464,1.063
8.394183,0.157,-10.419,1.031
8.404117,0.157,-10.38,1.038
8.414051,0.118,-10.373,0.999
8.424005,0.039,-10.271,1.097
8.433959,0.0,-10.187,1.072
8.443913,-0.039,-10.082,0.931
8.453867,-0.078,-9.96,0.913
8.463821,-0.118,-9.83,0.856
8.473775,-0.157,-9.766,0.947
8.483729,-0.157,-9.664,1.044
8.493683,-0.235,-9.625,1.051
8.503637,-0.314,-9.587,1.058
8.513591,-0.353,-9.6,1.135
8.523545,-0.471,-9.594,1.097
8.533499,-0.549,-9.653,1.206
8.543453,-0.588,-9.66,1.244
8.553401,-0.588,-9.746,1.508
8.563349,-0.51,-9.744,1.269
8.573297,-0.588,-9.746,1.508
8.583245,-0.549,-9.798,1.578
8.593193,-0.51,-9.882,1.603
8.603141,-0.431,-9.998,1.583
8.613089,-0.392,-10.089,1.647
8.623037,-0.392,-10.109,1.762
8.632985,-0.392,-10.148,1.756
8.642933,-0.314,-10.259,1.935
8.652881,-0.314,-10.239,1.819
8.662829,-0.275,-10.239,1.819
8.672777,-0.275,-10.246,1.858
8.682725,-0.314,-10.33,1.883
8.692658,-0.275,-10.278,1.812
8.702591,-0.314,-10.305,1.967
8.712524,-0.353,-10.278,1.812
8.722457,-0.314,-10.291,1.89
8.73239,-0.314,-10.291,1.89
8.742323,-0.314,-10.298,1.928
8.752256,-0.314,-10.33,1.883
8.762189,-0.314,-10.368,1.876
8.772122,-0.314,-10.396,2.031
8.782055,-0.314,-10.382,1.953
8.791988,-0.235,-10.362,1.837
8.801921,-0.235,-10.341,1.722
8.811854,-0.235,-10.278,1.812
8.821787,-0.235,-10.187,1.749
8.831714,-0.235,-10.2,1.826
8.841641,-0.235,-10.134,1.678
8.851568,-0.196,-10.225,1.742
8.861495,-0.196,-10.314,1.567
8.871422,-0.235,-10.359,1.599
8.881349,-0.235,-10.353,1.56
8.891276,-0.235,-10.409,1.431
8.901203,-0.196,-10.48,1.378
8.91113,-0.235,-10.441,1.385
8.921057,-0.235,-10.371,1.438
8.930984,-0.196,-10.357,1.36
8.940911,-0.157,-10.35,1.322
8.950813,-0.196,-10.337,1.244
8.960715,-0.157,-10.337,1.244
8.970617,-0.157,-10.355,1.122
8.980519,-0.157,-10.334,1.006
8.990421,-0.118,-10.282,0.935
9.000323,-0.118,-10.191,0.872
9.010225,-0.078,-10.028,0.622
9.020127,-0.118,-9.923,0.481
9.030029,-0.118,-9.832,0.417
9.039931,-0.118,-9.741,0.354
9.049833,-0.078,-9.76,0.231
9.059735,-0.078,-9.694,0.083
9.069637,-0.078,-9.655,0.09
9.079539,-0.118,-9.576,-0.135
9.089422,-0.039,-9.648,0.051
9.099305,-0.196,-9.664,-0.31
9.109188,-0.196,-9.723,-0.201
9.119071,-0.196,-9.755,-0.246
9.128954,-0.196,-9.864,-0.305
9.138837,-0.235,-9.889,-0.389
9.14872,-0.196,-9.96,-0.442
9.158603,-0.196,-10.005,-0.41
9.168486,-0.196,-10.01,-0.61
9.178369,-0.275,-9.971,-0.603
9.188252,-0.275,-9.976,-0.803
9.198135,-0.275,-9.937,-0.796
9.208018,-0.314,-9.898,-0.789
9.217894,-0.275,-9.821,-0.776
9.22777,-0.275,-9.723,-0.878
9.237646,-0.314,-9.664,-0.987
9.247522,-0.392,-9.626,-0.98
9.257398,-0.431,-9.573,-1.051
9.267274,-0.431,-9.58,-1.012
9.27715,-0.392,-9.599,-1.135
9.287026,-0.431,-9.605,-1.096
9.296902,-0.392,-9.624,-1.219
9.306778,-0.392,-9.753,-1.162
9.316654,-0.392,-9.771,-1.285
9.32653,-0.353,-9.842,-1.337
9.336406,-0.431,-9.86,-1.46
9.346287,-0.392,-9.937,-1.473
9.356168,-0.353,-9.958,-1.357
9.366049,-0.353,-9.989,-1.403
9.37593,-0.353,-10.014,-1.487
9.385811,-0.314,-10.046,-1.532
9.395692,-0.314,-10.046,-1.532
9.405573,-0.314,-10.067,-1.417
9.415454,-0.314,-9.962,-1.557
9.425335,-0.353,-9.962,-1.557
9.435216,-0.353,-9.853,-1.498
9.445097,-0.353,-9.769,-1.523
9.454978,-0.314,-9.744,-1.439
9.464859,-0.353,-9.667,-1.426
9.474754,-0.353,-9.574,-1.728
9.484649,-0.353,-9.687,-1.31
9.494544,-0.392,-9.642,-1.342
9.504439,-0.392,-9.733,-1.278
9.514334,-0.392,-9.753,-1.162
9.524229,-0.431,-9.792,-1.169
9.534124,-0.471,-9.869,-1.183
9.544019,-0.431,-9.901,-1.228
9.553914,-0.471,-9.985,-1.203
9.563809,-0.431,-10.03,-1.171
9.573704,-0.431,-10.153,-1.153
9.583599,-0.431,-10.185,-1.198
9.593494,-0.431,-10.192,-1.16
9.603416,-0.471,-10.28,-1.335
9.613338,-0.392,-10.28,-1.335
9.62326,-0.353,-10.248,-1.289
9.633182,-0.314,-10.228,-1.405
9.643104,-0.275,-10.246,-1.528
9.653026,-0.275,-10.278,-1.573
9.662948,-0.275,-10.233,-1.605
9.67287,-0.235,-10.142,-1.669
9.682792,-0.235,-10.11,-1.623
9.692714,-0.196,-10.064,-1.655
9.702636,-0.235,-9.96,-1.796
9.712558,-0.235,-9.921,-1.789
9.72248,-0.235,-9.844,-1.776
9.732409,-0.196,-9.81,-1.969
9.742338,-0.157,-9.83,-1.853
9.752267,-0.157,-9.844,-1.776
9.762196,-0.157,-9.835,-2.053
9.772125,-0.157,-9.869,-1.86
9.782054,-0.157,-9.901,-1.905
9.791983,-0.157,-9.874,-2.06
9.801912,-0.118,-9.989,-2.08
9.811841,-0.118,-9.989,-2.08
9.82177,-0.118,-10.035,-2.048
9.831699,-0.118,-10.074,-2.055
9.841628,-0.118,-10.067,-2.094
9.851557,-0.118,-9.983,-2.119
9.861486,-0.118,-10.017,-1.926
9.871434,-0.157,-9.924,-2.228
9.881382,-0.157,-9.912,-2.066
9.89133,-0.157,-9.853,-2.176
9.901278,-0.157,-9.853,-2.176
9.911226,-0.157,-9.815,-2.169
9.921174,-0.196,-9.776,-2.162
9.931122,-0.235,-9.755,-2.278
9.94107,-0.235,-9.762,-2.239
9.951018,-0.275,-9.762,-2.239
9.960966,-0.314,-9.762,-2.239
9.970914,-0.314,-9.755,-2.278
9.980862,-0.314,-9.717,-2.271
9.99081,-0.353,-9.671,-2.303
10.00078,-0.353,-9.665,-2.341
10.01075,-0.392,-9.651,-2.419
10.02072,-0.392,-9.671,-2.303
10.03069,-0.431,-9.633,-2.296
10.04066,-0.392,-9.665,-2.341
10.05063,-0.431,-9.728,-2.432
10.0606,-0.431,-9.767,-2.439
10.07057,-0.431,-9.721,-2.471
10.08054,-0.431,-9.76,-2.478
10.09051,-0.392,-9.799,-2.485
10.10048,-0.431,-9.733,-2.632
10.11045,-0.431,-9.76,-2.478
10.12042,-0.471,-9.733,-2.632
10.1304,-0.431,-9.792,-2.523
10.14038,-0.392,-9.771,-2.639
10.15036,-0.431,-9.81,-2.646
10.16034,-0.431,-9.792,-2.523
10.17032,-0.471,-9.792,-2.523
10.1803,-0.51,-9.726,-2.671
10.19028,-0.51,-9.719,-2.71
10.20026,-0.471,-9.699,-2.825
10.21024,-0.471,-9.706,-2.787
10.22022,-0.471,-9.667,-2.78
10.2302,-0.431,-9.685,-2.903
10.24018,-0.471,-9.699,-2.825
10.25016,-0.431,-9.667,-2.78
10.26014,-0.392,-9.635,-2.735
10.270106,-0.431,-9.594,-2.966
10.280072,-0.431,-9.601,-2.928
10.290038,-0.431,-9.615,-2.85
10.300004,-0.431,-9.615,-2.85
10.30997,-0.431,-9.608,-2.889
10.319936,-0.431,-9.576,-2.844
10.329902,-0.431,-9.621,-2.812
10.339868,-0.392,-9.628,-2.773
10.349834,-0.392,-9.576,-2.844
10.3598,-0.392,-9.635,-2.735
10.369766,-0.392,-9.621,-2.812
10.379732,-0.431,-9.628,-2.773
10.389698,-0.431,-9.628,-2.773
10.399664,-0.353,-9.656,-2.619
10.40961,-0.392,-9.676,-2.503
10.419556,-0.392,-9.642,-2.696
10.429502,-0.392,-9.687,-2.664
10.439448,-0.392,-9.74,-2.594
10.449394,-0.392,-9.785,-2.562
10.45934,-0.392,-9.803,-2.685
10.469286,-0.431,-9.817,-2.607
10.479232,-0.392,-9.81,-2.646
10.489178,-0.392,-9.824,-2.569
10.499124,-0.392,-9.771,-2.639
10.50907,-0.431,-9.817,-2.607
10.519016,-0.431,-9.83,-2.53
10.528962,-0.471,-9.83,-2.53
10.538892,-0.431,-9.849,-2.653
10.548822,-0.431,-9.924,-2.228
10.558752,-0.471,-9.837,-2.491
10.568682,-0.471,-9.799,-2.485
10.578612,-0.431,-9.778,-2.6
10.588542,-0.431,-9.785,-2.562
10.598472,-0.431,-9.753,-2.516
10.608402,-0.392,-9.792,-2.523
10.618332,-0.392,-9.792,-2.523
10.628262,-0.392,-9.778,-2.6
10.638192,-0.392,-9.799,-2.485
10.648122,-0.392,-9.785,-2.562
10.658052,-0.353,-9.746,-2.555
10.667982,-0.353,-9.778,-2.6
10.677902,-0.392,-9.765,-2.678
10.687822,-0.392,-9.824,-2.569
10.697742,-0.353,-9.778,-2.6
10.707662,-0.392,-9.746,-2.555
10.717582,-0.353,-9.74,-2.594
10.727502,-0.392,-9.701,-2.587
10.737422,-0.314,-9.708,-2.548
10.747342,-0.314,-9.733,-2.632
10.757262,-0.314,-9.778,-2.6
10.767182,-0.353,-9.796,-2.723
10.777102,-0.353,-9.758,-2.716
10.787022,-0.353,-9.785,-2.562
10.796942,-0.392,-9.733,-2.632
10.806882,-0.431,-9.726,-2.671
10.816822,-0.431,-9.733,-2.632
10.826762,-0.471,-9.701,-2.587
10.836702,-0.471,-9.708,-2.548
10.846642,-0.471,-9.721,-2.471
10.856582,-0.471,-9.715,-2.51
10.866522,-0.431,-9.728,-2.432
10.876462,-0.471,-9.753,-2.516
10.886402,-0.431,-9.799,-2.485
10.896342,-0.431,-9.792,-2.523
10.906282,-0.431,-9.792,-2.523
10.916222,-0.471,-9.792,-2.523
10.926162,-0.392,-9.799,-2.485
10.936111,-0.353,-9.792,-2.523
10.94606,-0.431,-9.778,-2.6
10.956009,-0.431,-9.817,-2.607
10.965958,-0.431,-9.851,-2.414
10.975907,-0.431,-9.792,-2.523
10.985856,-0.392,-9.799,-2.485
10.995805,-0.471,-9.851,-2.414
11.005754,-0.471,-9.844,-2.453
11.015703,-0.471,-9.805,-2.446
11.025652,-0.471,-9.812,-2.407
11.035601,-0.471,-9.812,-2.407
11.04555,-0.471,-9.865,-2.337
11.055499,-0.51,-9.805,-2.446
11.065443,-0.431,-9.844,-2.453
11.075387,-0.471,-9.799,-2.485
11.085331,-0.51,-9.785,-2.562
11.095275,-0.51,-9.819,-2.369
11.105219,-0.549,-9.792,-2.523
11.115163,-0.51,-9.792,-2.523
11.125107,-0.51,-9.767,-2.439
11.135051,-0.51,-9.767,-2.439
11.144995,-0.51,-9.78,-2.362
11.154939,-0.51,-9.78,-2.362
11.164883,-0.471,-9.805,-2.446
11.174827,-0.431,-9.819,-2.369
11.184771,-0.471,-9.812,-2.407
11.194715,-0.51,-9.819,-2.369
11.204651,-0.51,-9.805,-2.446
11.214587,-0.471,-9.844,-2.453
11.224523,-0.471,-9.812,-2.407
11.234459,-0.471,-9.805,-2.446
11.244395,-0.471,-9.851,-2.414
11.254331,-0.392,-9.837,-2.491
11.264267,-0.431,-9.858,-2.375
11.274203,-0.431,-9.896,-2.382
11.284139,-0.431,-9.896,-2.382
11.294075,-0.431,-9.844,-2.453
11.304011,-0.431,-9.819,-2.369
11.313947,-0.431,-9.812,-2.407
11.323883,-0.392,-9.819,-2.369
11.333808,-0.431,-9.81,-2.646
11.343733,-0.314,-9.851,-2.414
11.353658,-0.235,-9.844,-2.453
11.363583,-0.196,-9.767,-2.439
11.373508,-0.118,-9.735,-2.394
11.383433,-0.118,-9.774,-2.4
11.393358,-0.078,-9.721,-2.471
11.403283,-0.118,-9.774,-2.4
11.413208,-0.078,-9.767,-2.439
11.423133,0.039,-9.76,-2.478
11.433058,0.235,-9.76,-2.478
11.442983,0.51,-9.76,-2.478
11.452908,0.824,-9.767,-2.439
11.462828,1.138,-9.767,-2.439
11.472748,1.412,-9.778,-2.6
11.482668,1.648,-9.896,-2.382
11.492588,1.922,-9.953,-2.512
11.502508,2.118,-10.096,-2.378
11.512428,2.314,-10.194,-2.275
11.522348,2.55,-10.137,-2.146
11.532268,2.746,-10.119,-2.023
11.542188,3.02,-10.187,-1.637
11.552108,3.177,-10.228,-1.405
11.562028,3.138,-10.269,-1.173
11.571948,2.864,-10.321,-1.103
11.581868,2.432,-10.323,-0.864
11.591819,2.04,-10.319,-0.664
11.60177,1.648,-10.26,-0.773
11.611721,1.334,-10.217,-0.567
11.621672,1.098,-10.166,-0.399
11.631623,0.706,-10.051,-0.378
11.641574,0.353,-9.948,-0.28
11.651525,0.078,-9.857,-0.344
11.661476,-0.314,-9.819,-0.337
11.671427,-0.706,-9.78,-0.33
11.681378,-1.098,-9.619,-0.342
11.691329,-1.569,-9.535,-0.367
11.70128,-1.844,-9.455,-0.592
11.711231,-2.04,-9.501,-0.56
11.721189,-2.275,-9.521,-0.444
11.731147,-2.55,-9.564,-0.651
11.741105,-2.785,-9.526,-0.644
11.751063,-3.06,-9.589,-0.735
11.761021,-3.177,-9.698,-0.794
11.770979,-3.256,-9.839,-0.898
11.780937,-3.373,-9.91,-0.951
11.790895,-3.413,-9.994,-0.926
11.800853,-3.491,-10.044,-1.094
11.810811,-3.452,-10.051,-1.055
11.820769,-3.413,-10.089,-1.062
11.830727,-3.295,-10.044,-1.094
11.840685,-3.099,-9.953,-1.158
11.850612,-2.942,-9.98,-1.003
11.860539,-2.785,-9.869,-1.183
11.870466,-2.628,-9.946,-1.196
11.880393,-2.511,-9.908,-1.189
11.89032,-2.432,-9.928,-1.073
11.900247,-2.275,-9.921,-1.112
11.910174,-2.157,-9.953,-1.158
11.920101,-1.961,-9.967,-1.08
11.930028,-1.804,-9.96,-1.119
11.939955,-1.608,-9.928,-1.073
11.949882,-1.451,-9.889,-1.067
11.959809,-1.334,-9.889,-1.067
11.969736,-1.294,-9.858,-1.021
11.979663,-1.255,-9.851,-1.06
11.989566,-1.177,-9.878,-0.905
11.999469,-1.216,-9.896,-1.028
12.009372,-1.216,-9.923,-0.873
12.019275,-1.216,-9.989,-0.726
12.029178,-1.255,-10.001,-0.887
12.039081,-1.334,-10.06,-0.778
12.048984,-1.294,-10.098,-0.785
12.058887,-1.255,-10.13,-0.83
12.06879,-1.216,-10.169,-0.837
12.078693,-1.177,-10.221,-0.767
12.088596,-1.177,-10.246,-0.851
12.098499,-1.255,-10.253,-0.812
12.108402,-1.294,-10.26,-0.773
12.118305,-1.294,-10.214,-0.805
12.128195,-1.255,-10.169,-0.837
12.138085,-1.216,-10.112,-0.708
12.147975,-1.177,-10.105,-0.746
12.157865,-1.098,-10.032,-0.933
12.167755,-1.138,-10.032,-0.933
12.177645,-1.098,-10.032,-0.933
12.187535,-1.098,-10.032,-0.933
12.197425,-1.098,-10.078,-0.901
12.207315,-1.098,-10.026,-0.971
12.217205,-1.098,-10.032,-0.933
12.227095,-1.059,-9.98,-1.003
12.236985,-1.02,-9.955,-0.919
12.246872,-1.02,-9.91,-0.951
12.256759,-0.981,-9.955,-0.919
12.266646,-1.02,-9.948,-0.958
12.276533,-1.059,-9.935,-1.035
12.28642,-1.177,-9.942,-0.996
12.296307,-1.177,-9.935,-1.035
12.306194,-1.177,-9.973,-1.042
12.316081,-1.216,-9.987,-0.964
12.325968,-1.294,-10.039,-0.894
12.335855,-1.334,-10.012,-1.048
12.345742,-1.334,-9.98,-1.003
12.355629,-1.412,-10.039,-0.894
12.365516,-1.373,-10.032,-0.933
12.375409,-1.451,-9.973,-1.042
12.385302,-1.412,-9.962,-0.88
12.395195,-1.412,-10.007,-0.848
12.405088,-1.373,-9.955,-0.919
12.414981,-1.373,-9.948,-0.958
12.424874,-1.373,-9.962,-0.88
12.434767,-1.334,-10.001,-0.887
12.44466,-1.334,-9.955,-0.919
12.454553,-1.334,-10.021,-0.771
12.464446,-1.373,-9.994,-0.926
12.474339,-1.373,-9.948,-0.958
12.484232,-1.373,-9.976,-0.803
12.494125,-1.451,-9.969,-0.842
12.504037,-1.53,-9.982,-0.764
12.513949,-1.608,-9.982,-0.764
12.523861,-1.726,-10.007,-0.848
12.533773,-1.922,-10.028,-0.733
12.543685,-2.197,-10.06,-0.778
12.553597,-2.511,-10.105,-0.746
12.563509,-2.903,-10.101,-0.546
12.573421,-3.373,-10.069,-0.501
12.583333,-3.805,-10.096,-0.346
12.593245,-4.197,-10.057,-0.339
12.603157,-4.433,-10.085,-0.185
12.613069,-4.55,-10.073,-0.024
12.622981,-4.511,-9.989,-0.049
12.632893,-4.433,-10.01,0.067
12.642805,-4.276,-10.03,0.183
12.652717,-4.158,-10.094,0.092
12.662629,-3.962,-10.128,0.285
12.672541,-3.727,-10.173,0.317
12.682453,-3.373,-10.155,0.44
12.692365,-3.02,-10.051,0.299
12.702277,-2.628,-9.987,0.39
12.712189,-2.314,-9.871,0.41
12.722101,-1.961,-9.735,0.315
12.732013,-1.648,-9.707,0.16
12.741925,-1.216,-9.701,0.122
12.751837,-0.863,-9.764,0.031
12.761749,-0.51,-9.789,-0.053
12.771655,-0.275,-9.801,-0.215
12.781561,-0.118,-9.792,-0.492
12.791467,0.118,-9.792,-0.492
12.801373,0.275,-9.848,-0.621
12.811279,0.431,-9.88,-0.667
12.821185,0.549,-9.898,-0.789
12.831091,0.588,-9.928,-1.073
12.840997,0.549,-10.005,-1.087
12.850903,0.431,-10.055,-1.255
12.860809,0.314,-10.101,-1.223
12.870715,0.235,-10.073,-1.378
12.880621,0.196,-10.042,-1.332
12.890527,0.157,-10.042,-1.332
12.900435,0.118,-10.008,-1.526
12.910343,0.0,-9.976,-1.48
12.920251,0.0,-9.955,-1.596
12.930159,0.0,-9.896,-1.705
12.940067,0.039,-9.826,-1.653
12.949975,0.078,-9.742,-1.678
12.959883,0.157,-9.728,-1.755
12.969791,0.157,-9.689,-1.748
12.979699,0.196,-9.642,-2.019
12.989607,0.196,-9.746,-1.878
12.999515,0.118,-9.771,-1.962
13.009423,0.039,-9.842,-2.014
13.019331,-0.039,-9.901,-1.905
13.029252,-0.157,-9.908,-1.866
13.039173,-0.275,-10.005,-1.764
13.049094,-0.471,-10.005,-1.764
13.059015,-0.588,-10.005,-1.764
13.068936,-0.667,-9.953,-1.835
13.078857,-0.667,-9.992,-1.841
13.088778,-0.706,-9.992,-1.841
13.098699,-0.785,-9.953,-1.835
13.10862,-0.785,-9.946,-1.873
13.118541,-0.745,-9.985,-1.88
13.128462,-0.745,-9.953,-1.835
13.138383,-0.628,-9.939,-1.912
13.148304,-0.628,-9.926,-1.989
13.158246,-0.628,-9.953,-1.835
13.168188,-0.588,-9.926,-1.989
13.17813,-0.549,-9.887,-1.982
13.188072,-0.549,-9.887,-1.982
13.198014,-0.51,-9.901,-1.905
13.207956,-0.51,-9.88,-2.021
13.217898,-0.51,-9.937,-2.151
13.22784,-0.549,-9.88,-2.021
13.237782,-0.549,-9.912,-2.066
13.247724,-0.549,-9.899,-2.144
13.257666,-0.51,-9.86,-2.137
13.267608,-0.549,-9.853,-2.176
13.27755,-0.588,-9.828,-2.091
13.287519,-0.628,-9.84,-2.253
13.297488,-0.667,-9.78,-2.362
13.307457,-0.706,-9.801,-2.246
13.317426,-0.745,-9.821,-2.13
13.327395,-0.785,-9.808,-2.207
13.337364,-0.785,-9.833,-2.291
13.347333,-0.745,-9.86,-2.137
13.357302,-0.824,-9.808,-2.207
13.367271,-0.824,-9.794,-2.285
13.37724,-0.824,-9.783,-2.123
13.387209,-0.824,-9.808,-2.207
13.397178,-0.863,-9.808,-2.207
13.407147,-0.824,-9.815,-2.169
13.4171,-0.863,-9.842,-2.014
13.427053,-0.824,-9.808,-2.207
13.437006,-0.824,-9.808,-2.207
13.446959,-0.824,-9.769,-2.201
13.456912,-0.824,-9.776,-2.162
13.466865,-0.824,-9.769,-2.201
13.476818,-0.824,-9.769,-2.201
13.486771,-0.785,-9.737,-2.155
13.496724,-0.785,-9.73,-2.194
13.506677,-0.745,-9.751,-2.078
13.51663,-0.745,-9.73,-2.194
13.526583,-0.745,-9.744,-2.116
13.536536,-0.745,-9.737,-2.155
13.546489,-0.706,-9.79,-2.085
13.55644,-0.745,-9.821,-2.13
13.566391,-0.706,-9.853,-2.176
13.576342,-0.706,-9.828,-2.091
13.586293,-0.745,-9.821,-2.13
13.596244,-0.785,-9.853,-2.176
13.606195,-0.785,-9.815,-2.169
13.616146,-0.824,-9.88,-2.021
13.626097,-0.863,-9.905,-2.105
13.636048,-0.824,-9.899,-2.144
13.645999,-0.902,-9.951,-2.073
13.65595,-0.863,-9.905,-2.105
13.665901,-0.863,-9.867,-2.098
13.675852,-0.941,-9.821,-2.13
13.685816,-0.941,-9.921,-1.789
13.69578,-0.941,-9.939,-1.912
13.705744,-0.941,-9.874,-2.06
13.715708,-0.941,-9.842,-2.014
13.725672,-0.902,-9.828,-2.091
13.735636,-0.902,-9.821,-2.13
13.7456,-0.863,-9.842,-2.014
13.755564,-0.863,-9.842,-2.014
13.765528,-0.824,-9.842,-2.014
13.775492,-0.824,-9.828,-2.091
13.785456,-0.863,-9.86,-2.137
13.79542,-0.863,-9.867,-2.098
13.805384,-0.824,-9.828,-2.091
13.815334,-0.785,-9.835,-2.053
13.825284,-0.785,-9.855,-1.937
13.835234,-0.785,-9.867,-2.098
13.845184,-0.824,-9.835,-2.053
13.855134,-0.824,-9.874,-2.06
13.865084,-0.785,-9.86,-2.137
13.875034,-0.863,-9.874,-2.06
13.884984,-0.785,-9.853,-2.176
13.894934,-0.824,-9.842,-2.014
13.904884,-0.824,-9.88,-2.021
13.914834,-0.785,-9.849,-1.976
13.924784,-0.824,-9.86,-2.137
13.934734,-0.824,-9.821,-2.13
13.944684,-0.863,-9.835,-2.053
13.95461,-0.824,-9.821,-2.13
13.964536,-0.824,-9.796,-2.046
13.974462,-0.785,-9.874,-2.06
13.984388,-0.745,-9.874,-2.06
13.994314,-0.745,-9.867,-2.098
14.00424,-0.745,-9.912,-2.066
14.014166,-0.785,-9.905,-2.105
14.024092,-0.785,-9.88,-2.021
14.034018,-0.824,-9.835,-2.053
14.043944,-0.824,-9.783,-2.123
14.05387,-0.863,-9.803,-2.007
14.063796,-0.785,-9.796,-2.046
14.073722,-0.785,-9.842,-2.014
14.083648,-0.785,-9.828,-2.091
14.093562,-0.785,-9.849,-1.976
14.103476,-0.706,-9.815,-2.169
14.11339,-0.745,-9.815,-2.169
14.123304,-0.785,-9.84,-2.253
14.133218,-0.785,-9.842,-2.014
14.143132,-0.785,-9.821,-2.13
14.153046,-0.785,-9.867,-2.098
14.16296,-0.785,-9.919,-2.028
14.172874,-0.785,-9.912,-2.066
14.182788,-0.824,-9.912,-2.066
14.192702,-0.785,-9.926,-1.989
14.202616,-0.785,-9.912,-2.066
14.21253,-0.785,-9.867,-2.098
14.222439,-0.824,-9.86,-2.137
14.232348,-0.824,-9.874,-2.06
14.242257,-0.785,-9.874,-2.06
14.252166,-0.824,-9.905,-2.105
14.262075,-0.824,-9.874,-2.06
14.271984,-0.824,-9.887,-1.982
14.281893,-0.824,-9.874,-2.06
14.291802,-0.824,-9.867,-2.098
14.301711,-0.863,-9.815,-2.169
14.31162,-0.863,-9.815,-2.169
14.321529,-0.902,-9.828,-2.091
14.331438,-0.863,-9.796,-2.046
14.341347,-0.863,-9.803,-2.007
14.351245,-0.863,-9.771,-1.962
14.361143,-0.902,-9.817,-1.93
14.371041,-0.863,-9.771,-1.962
14.380939,-0.863,-9.79,-2.085
14.390837,-0.902,-9.765,-2.001
14.400735,-0.863,-9.765,-2.001
14.410633,-0.902,-9.796,-2.046
14.420531,-0.863,-9.803,-2.007
14.430429,-0.902,-9.828,-2.091
14.440327,-0.824,-9.828,-2.091
14.450225,-0.824,-9.933,-1.951
14.460123,-0.824,-9.933,-1.951
14.470021,-0.824,-9.874,-2.06
14.479919,-0.824,-9.874,-2.06
14.489817,-0.785,-9.874,-2.06
14.499707,-0.824,-9.933,-1.951
14.509597,-0.706,-9.946,-1.873
14.519487,-0.745,-9.951,-2.073
14.529377,-0.745,-9.939,-1.912
14.539267,-0.745,-9.867,-2.098
14.549157,-0.785,-9.933,-1.951
14.559047,-0.745,-9.887,-1.982
14.568937,-0.785,-9.862,-1.898
14.578827,-0.785,-9.842,-2.014
14.588717,-0.785,-9.842,-2.014
14.598607,-0.745,-9.855,-1.937
14.608497,-0.706,-9.849,-1.976
14.618393,-0.667,-9.849,-1.976
14.628289,-0.667,-9.855,-1.937
14.638185,-0.706,-9.862,-1.898
14.648081,-0.706,-9.849,-1.976
14.657977,-0.667,-9.887,-1.982
14.667873,-0.667,-9.874,-2.06
14.677769,-0.706,-9.887,-1.982
14.687665,-0.706,-9.901,-1.905
14.697561,-0.667,-9.946,-1.873
14.707457,-0.667,-9.908,-1.866
14.717353,-0.667,-9.88,-2.021
14.727249,-0.628,-9.862,-1.898
14.737145,-0.667,-9.817,-1.93
14.747041,-0.706,-9.855,-1.937
14.756937,-0.667,-9.83,-1.853
14.766836,-0.667,-9.858,-1.698
14.776735,-0.667,-9.869,-1.86
14.786634,-0.706,-9.887,-1.982
14.796533,-0.706,-9.921,-1.789
14.806432,-0.706,-9.933,-1.951
14.816331,-0.706,-9.939,-1.912
14.82623,-0.667,-9.908,-1.866
14.836129,-0.667,-9.908,-1.866
14.846028,-0.667,-9.869,-1.86
14.855927,-0.706,-9.746,-1.878
14.865826,-0.706,-9.862,-1.898
14.875725,-0.667,-9.835,-2.053
14.885625,-0.667,-9.887,-1.982
14.895525,-0.588,-9.887,-1.982
14.905425,-0.628,-9.901,-1.905
14.915325,-0.628,-9.849,-1.976
14.925225,-0.588,-9.849,-1.976
14.935125,-0.628,-9.83,-1.853
14.945025,-0.667,-9.817,-1.93
14.954925,-0.667,-9.862,-1.898
14.964825,-0.667,-9.876,-1.821
14.974725,-0.628,-9.862,-1.898
14.984625,-0.628,-9.83,-1.853
14.994525,-0.588,-9.869,-1.86
15.004425,-0.628,-9.83,-1.853
15.014325,-0.588,-9.83,-1.853
15.024223,-0.628,-9.869,-1.86
15.034121,-0.628,-9.91,-1.628
15.044019,-0.667,-9.889,-1.744
15.053917,-0.667,-9.921,-1.789
15.063815,-0.667,-9.914,-1.828
15.073713,-0.667,-9.908,-1.866
15.083611,-0.667,-9.921,-1.789
15.093509,-0.706,-9.876,-1.821
15.103407,-0.706,-9.889,-1.744
15.113305,-0.706,-9.851,-1.737
15.123203,-0.745,-9.837,-1.814
15.133101,-0.706,-9.876,-1.821
15.142999,-0.706,-9.883,-1.782
15.152913,-0.745,-9.889,-1.744
15.162827,-0.785,-9.914,-1.828
15.172741,-0.785,-9.942,-1.673
15.182655,-0.785,-9.942,-1.673
15.192569,-0.824,-9.928,-1.751
15.202483,-0.863,-9.949,-1.635
15.212397,-0.863,-9.955,-1.596
15.222311,-0.902,-9.949,-1.635
15.232225,-0.902,-9.903,-1.667
15.242139,-0.902,-9.942,-1.673
15.252053,-0.941,-9.91,-1.628
15.261967,-0.902,-9.917,-1.589
15.271881,-0.981,-9.955,-1.596
15.28183,-0.902,-9.937,-1.473
15.291779,-0.941,-9.91,-1.628
15.301728,-0.902,-9.93,-1.512
15.311677,-0.902,-9.949,-1.635
15.321626,-0.902,-9.93,-1.512
15.331575,-0.902,-9.949,-1.635
15.341524,-0.863,-9.98,-1.68
15.351473,-0.902,-9.949,-1.635
15.361422,-0.902,-9.969,-1.519
15.371371,-0.902,-9.98,-1.68
15.38132,-0.863,-9.994,-1.603
15.391269,-0.863,-9.955,-1.596
15.401218,-0.824,-9.962,-1.557
15.411167,-0.863,-9.969,-1.519
15.421143,-0.824,-9.935,-1.712
15.431119,-0.824,-9.917,-1.589
15.441095,-0.785,-9.962,-1.557
15.451071,-0.824,-9.962,-1.557
15.461047,-0.824,-9.924,-1.551
15.471023,-0.785,-9.969,-1.519
15.480999,-0.785,-10.001,-1.564
15.490975,-0.824,-9.962,-1.557
15.500951,-0.824,-9.91,-1.628
15.510927,-0.824,-9.917,-1.589
15.520903,-0.824,-9.937,-1.473
15.530879,-0.824,-9.924,-1.551
15.540882,-0.902,-9.924,-1.551
15.550885,-0.824,-9.924,-1.551
15.560888,-0.824,-9.917,-1.589
15.570891,-0.863,-9.969,-1.519
15.580894,-0.863,-9.962,-1.557
15.590897,-0.824,-9.949,-1.635
15.6009,-0.863,-9.917,-1.589
15.610903,-0.863,-9.949,-1.635
15.620906,-0.863,-9.962,-1.557
15.630909,-0.863,-9.969,-1.519
15.640912,-0.902,-9.949,-1.635
15.650915,-0.902,-9.949,-1.635
15.660918,-0.863,-10.001,-1.564
15.67091,-0.863,-10.001,-1.564
15.680902,-0.863,-9.935,-1.712
15.690894,-0.902,-9.976,-1.48
15.700886,-0.863,-9.987,-1.642
15.710878,-0.902,-9.928,-1.751
15.72087,-0.863,-9.903,-1.667
15.730862,-0.863,-9.903,-1.667
15.740854,-0.824,-9.896,-1.705
15.750846,-0.824,-9.903,-1.667
15.760838,-0.824,-9.928,-1.751
15.77083,-0.824,-9.903,-1.667
15.780822,-0.824,-9.942,-1.673
15.790814,-0.824,-9.935,-1.712
15.800806,-0.785,-9.889,-1.744
15.810792,-0.785,-9.942,-1.673
15.820778,-0.863,-9.896,-1.705
15.830764,-0.863,-9.896,-1.705
15.84075,-0.785,-9.864,-1.66
15.850736,-0.824,-9.819,-1.692
15.860722,-0.824,-9.851,-1.737
15.870708,-0.863,-9.837,-1.814
15.880694,-0.863,-9.871,-1.621
15.89068,-0.902,-9.889,-1.744
15.900666,-0.902,-9.967,-1.757
15.910652,-0.863,-9.935,-1.712
15.920638,-0.863,-9.889,-1.744
15.930624,-0.824,-9.928,-1.751
15.940605,-0.863,-9.869,-1.86
15.950586,-0.863,-9.896,-1.705
15.960567,-0.824,-9.889,-1.744
15.970548,-0.785,-9.896,-1.705
15.980529,-0.785,-9.903,-1.667
15.99051,-0.824,-9.862,-1.898
16.000491,-0.824,-9.876,-1.821
16.010472,-0.785,-9.953,-1.835
16.020453,-0.785,-9.946,-1.873
16.030434,-0.785,-9.928,-1.751
16.040415,-0.785,-9.849,-1.976
16.050396,-0.745,-9.869,-1.86
16.060377,-0.785,-9.862,-1.898
16.070332,-0.785,-9.855,-1.937
16.080287,-0.902,-9.869,-1.86
16.090242,-0.863,-9.908,-1.866
16.100197,-0.824,-9.914,-1.828
16.110152,-0.824,-9.869,-1.86
16.120107,-0.824,-9.869,-1.86
16.130062,-0.824,-9.855,-1.937
16.140017,-0.824,-9.849,-1.976
16.149972,-0.824,-9.855,-1.937
16.159927,-0.824,-9.862,-1.898
16.169882,-0.863,-9.862,-1.898
16.179837,-0.824,-9.876,-1.821
16.189792,-0.824,-9.914,-1.828
16.199747,-0.824,-9.908,-1.866
16.209681,-0.824,-9.894,-1.944
16.219615,-0.824,-9.908,-1.866
16.229549,-0.824,-9.901,-1.905
16.239483,-0.824,-9.908,-1.866
16.249417,-0.824,-9.862,-1.898
16.259351,-0.824,-9.842,-2.014
16.269285,-0.824,-9.849,-1.976
16.279219,-0.785,-9.894,-1.944
16.289153,-0.863,-9.894,-1.944
16.299087,-0.863,-9.88,-2.021
16.309021,-0.902,-9.842,-2.014
16.318955,-0.863,-9.828,-2.091
16.328889,-0.902,-9.849,-1.976
16.338831,-0.863,-9.796,-2.046
16.348773,-0.863,-9.81,-1.969
16.358715,-0.863,-9.849,-1.976
16.368657,-0.902,-9.849,-1.976
16.378599,-0.902,-9.842,-2.014
16.388541,-0.863,-9.835,-2.053
16.398483,-0.902,-9.821,-2.13
16.408425,-0.902,-9.874,-2.06
16.418367,-0.941,-9.846,-2.214
16.428309,-0.941,-9.821,-2.13
16.438251,-0.941,-9.815,-2.169
16.448193,-0.863,-9.828,-2.091
16.458135,-0.863,-9.828,-2.091
16.468051,-0.863,-9.81,-1.969
16.477967,-0.863,-9.771,-1.962
16.487883,-0.902,-9.776,-2.162
16.497799,-0.902,-9.783,-2.123
16.507715,-0.863,-9.821,-2.13
16.517631,-0.863,-9.815,-2.169
16.527547,-0.863,-9.776,-2.162
16.537463,-0.902,-9.783,-2.123
16.547379,-0.941,-9.821,-2.13
16.557295,-0.941,-9.808,-2.207
16.567211,-0.941,-9.776,-2.162
16.577127,-0.902,-9.828,-2.091
16.587043,-0.902,-9.783,-2.123
16.596959,-0.902,-9.783,-2.123
16.606859,-0.863,-9.776,-2.162
16.616759,-0.863,-9.79,-2.085
16.626659,-0.863,-9.815,-2.169
16.636559,-0.863,-9.853,-2.176
16.646459,-0.863,-9.84,-2.253
16.656359,-0.863,-9.846,-2.214
16.666259,-0.863,-9.808,-2.207
16.676159,-0.863,-9.815,-2.169
16.686059,-0.902,-9.769,-2.201
16.695959,-0.902,-9.783,-2.123
16.705859,-0.902,-9.776,-2.162
16.715759,-0.941,-9.769,-2.201
16.725659,-0.941,-9.776,-2.162
16.735551,-0.941,-9.84,-2.253
16.745443,-0.941,-9.801,-2.246
16.755335,-0.902,-9.762,-2.239
16.765227,-0.902,-9.769,-2.201
16.775119,-0.902,-9.755,-2.278
16.785011,-0.902,-9.769,-2.201
16.794903,-0.902,-9.762,-2.239
16.804795,-0.902,-9.815,-2.169
16.814687,-0.824,-9.86,-2.137
16.824579,-0.863,-9.783,-2.123
16.834471,-0.824,-9.808,-2.207
16.844363,-0.785,-9.853,-2.176
16.854255,-0.785,-9.846,-2.214
16.864147,-0.824,-9.846,-2.214
16.874032,-0.824,-9.801,-2.246
16.883917,-0.824,-9.821,-2.13
16.893802,-0.824,-9.801,-2.246
16.903687,-0.824,-9.755,-2.278
16.913572,-0.785,-9.755,-2.278
16.923457,-0.785,-9.776,-2.162
16.933342,-0.745,-9.769,-2.201
16.943227,-0.745,-9.808,-2.207
16.953112,-0.745,-9.801,-2.246
16.962997,-0.745,-9.808,-2.207
16.972882,-0.745,-9.808,-2.207
16.982767,-0.706,-9.762,-2.239
16.992652,-0.706,-9.794,-2.285
17.002543,-0.667,-9.821,-2.13
17.012434,-0.667,-9.846,-2.214
17.022325,-0.706,-9.769,-2.201
17.032216,-0.706,-9.769,-2.201
17.042107,-0.706,-9.794,-2.285
17.051998,-0.706,-9.821,-2.13
17.061889,-0.667,-9.821,-2.13
17.07178,-0.628,-9.86,-2.137
17.081671,-0.628,-9.833,-2.291
17.091562,-0.628,-9.846,-2.214
17.101453,-0.667,-9.853,-2.176
17.111344,-0.628,-9.892,-2.182
17.121235,-0.628,-9.892,-2.182
17.131153,-0.628,-9.899,-2.144
17.141071,-0.549,-9.899,-2.144
17.150989,-0.588,-9.853,-2.176
17.160907,-0.588,-9.892,-2.182
17.170825,-0.549,-9.84,-2.253
17.180743,-0.588,-9.846,-2.214
17.190661,-0.549,-9.853,-2.176
17.200579,-0.549,-9.846,-2.214
17.210497,-0.549,-9.853,-2.176
17.220415,-0.549,-9.846,-2.214
17.230333,-0.51,-9.86,-2.137
17.240251,-0.51,-9.885,-2.221
17.250169,-0.549,-9.84,-2.253
17.260087,-0.588,-9.801,-2.246
17.269991,-0.549,-9.794,-2.285
17.279895,-0.549,-9.815,-2.169
17.289799,-0.628,-9.855,-1.937
17.299703,-0.588,-9.821,-2.13
17.309607,-0.549,-9.833,-2.291
17.319511,-0.588,-9.808,-2.207
17.329415,-0.549,-9.808,-2.207
17.339319,-0.588,-9.84,-2.253
17.349223,-0.549,-9.84,-2.253
17.359127,-0.549,-9.808,-2.207
17.369031,-0.51,-9.853,-2.176
17.378935,-0.549,-9.853,-2.176
17.388839,-0.549,-9.846,-2.214
17.398743,-0.549,-9.846,-2.214
17.408646,-0.51,-9.84,-2.253
17.418549,-0.549,-9.846,-2.214
17.428452,-0.549,-9.808,-2.207
17.438355,-0.588,-9.815,-2.169
17.448258,-0.549,-9.801,-2.246
17.458161,-0.549,-9.833,-2.291
17.468064,-0.549,-9.878,-2.26
17.477967,-0.549,-9.84,-2.253
17.48787,-0.549,-9.878,-2.26
17.497773,-0.588,-9.892,-2.182
17.507676,-0.549,-9.892,-2.182
17.517579,-0.549,-9.801,-2.246
17.527482,-0.588,-9.794,-2.285
17.537382,-0.588,-9.815,-2.169
17.547282,-0.667,-9.787,-2.323
17.557182,-0.667,-9.808,-2.207
17.567082,-0.706,-9.815,-2.169
17.576982,-0.667,-9.801,-2.246
17.586882,-0.706,-9.808,-2.207
17.596782,-0.706,-9.874,-2.06
17.606682,-0.667,-9.86,-2.137
17.616582,-0.667,-9.885,-2.221
17.626482,-0.628,-9.853,-2.176
17.636382,-0.628,-9.885,-2.221
17.646282,-0.667,-9.853,-2.176
17.656182,-0.628,-9.808,-2.207
17.666082,-0.628,-9.892,-2.182
17.676004,-0.549,-9.912,-2.066
17.685926,-0.588,-9.899,-2.144
17.695848,-0.628,-9.833,-2.291
17.70577,-0.588,-9.833,-2.291
17.715692,-0.628,-9.905,-2.105
17.725614,-0.588,-9.867,-2.098
17.735536,-0.588,-9.815,-2.169
17.745458,-0.549,-9.846,-2.214
17.75538,-0.588,-9.853,-2.176
17.765302,-0.588,-9.815,-2.169
17.775224,-0.549,-9.762,-2.239
17.785146,-0.588,-9.801,-2.246
17.795068,-0.628,-9.815,-2.169
17.80502,-0.628,-9.835,-2.053
17.814972,-0.667,-9.801,-2.246
17.824924,-0.667,-9.815,-2.169
17.834876,-0.628,-9.84,-2.253
17.844828,-0.628,-9.853,-2.176
17.85478,-0.628,-9.815,-2.169
17.864732,-0.628,-9.86,-2.137
17.874684,-0.628,-9.821,-2.13
17.884636,-0.667,-9.867,-2.098
17.894588,-0.667,-9.853,-2.176
17.90454,-0.667,-9.835,-2.053
17.914492,-0.667,-9.808,-2.207
17.924444,-0.667,-9.815,-2.169
17.934396,-0.628,-9.86,-2.137
17.944337,-0.588,-9.867,-2.098
17.954278,-0.549,-9.874,-2.06
17.964219,-0.588,-9.853,-2.176
17.97416,-0.588,-9.885,-2.221
17.984101,-0.588,-9.86,-2.137
17.994042,-0.588,-9.867,-2.098
18.003983,-0.628,-9.905,-2.105
18.013924,-0.628,-9.885,-2.221
18.023865,-0.628,-9.899,-2.144
18.033806,-0.588,-9.905,-2.105
18.043747,-0.588,-9.853,-2.176
18.053688,-0.628,-9.86,-2.137
18.063629,-0.588,-9.853,-2.176
18.07357,-0.588,-9.926,-1.989
18.083538,-0.588,-9.887,-1.982
18.093506,-0.549,-9.808,-2.207
18.103474,-0.588,-9.867,-2.098
18.113442,-0.549,-9.874,-2.06
18.12341,-0.549,-9.815,-2.169
18.133378,-0.549,-9.905,-2.105
18.143346,-0.549,-9.867,-2.098
18.153314,-0.549,-9.867,-2.098
18.163282,-0.588,-9.815,-2.169
18.17325,-0.588,-9.867,-2.098
18.183218,-0.588,-9.88,-2.021
18.193186,-0.549,-9.867,-2.098
18.203176,-0.628,-9.867,-2.098
18.213166,-0.628,-9.926,-1.989
18.223156,-0.628,-9.899,-2.144
18.233146,-0.628,-9.899,-2.144
18.243136,-0.628,-9.912,-2.066
18.253126,-0.667,-9.892,-2.182
18.263116,-0.667,-9.853,-2.176
18.273106,-0.667,-9.828,-2.091
18.283096,-0.667,-9.821,-2.13
18.293086,-0.667,-9.867,-2.098
18.303076,-0.628,-9.874,-2.06
18.313066,-0.588,-9.853,-2.176
18.323056,-0.588,-9.828,-2.091
18.333021,-0.549,-9.835,-2.053
18.342986,-0.628,-9.842,-2.014
18.352951,-0.706,-9.849,-1.976
18.362916,-0.667,-9.815,-2.169
18.372881,-0.667,-9.796,-2.046
18.382846,-0.667,-9.815,-2.169
18.392811,-0.667,-9.828,-2.091
18.402776,-0.667,-9.821,-2.13
18.412741,-0.706,-9.796,-2.046
18.422706,-0.706,-9.79,-2.085
18.432671,-0.667,-9.828,-2.091
18.442636,-0.745,-9.828,-2.091
18.452601,-0.745,-9.846,-2.214
18.462566,-0.745,-9.867,-2.098
18.472523,-0.745,-9.846,-2.214
18.48248,-0.745,-9.86,-2.137
18.492437,-0.667,-9.86,-2.137
18.502394,-0.628,-9.853,-2.176
18.512351,-0.667,-9.892,-2.182
18.522308,-0.667,-9.912,-2.066
18.532265,-0.628,-9.88,-2.021
18.542222,-0.628,-9.86,-2.137
18.552179,-0.628,-9.853,-2.176
18.562136,-0.588,-9.853,-2.176
18.572093,-0.628,-9.853,-2.176
18.58205,-0.628,-9.874,-2.06
18.592007,-0.628,-9.86,-2.137
18.601964,-0.628,-9.853,-2.176
18.611921,-0.628,-9.867,-2.098
18.621899,-0.588,-9.86,-2.137
18.631877,-0.667,-9.853,-2.176
18.641855,-0.667,-9.821,-2.13
18.651833,-0.667,-9.828,-2.091
18.661811,-0.667,-9.821,-2.13
18.671789,-0.706,-9.853,-2.176
18.681767,-0.667,-9.821,-2.13
18.691745,-0.667,-9.783,-2.123
18.701723,-0.628,-9.821,-2.13
18.711701,-0.628,-9.86,-2.137
18.721679,-0.667,-9.853,-2.176
18.731631,-0.667,-9.846,-2.214
18.741583,-0.667,-9.905,-2.105
18.751535,-0.706,-9.874,-2.06
18.761487,-0.667,-9.905,-2.105
18.771439,-0.628,-9.853,-2.176
18.781391,-0.628,-9.892,-2.182
18.791343,-0.628,-9.86,-2.137
18.801295,-0.588,-9.86,-2.137
18.811247,-0.588,-9.86,-2.137
18.821199,-0.628,-9.874,-2.06
18.831151,-0.628,-9.86,-2.137
18.841103,-0.667,-9.892,-2.182
18.851055,-0.667,-9.905,-2.105
18.861007,-0.667,-9.867,-2.098
18.870956,-0.706,-9.867,-2.098
18.880905,-0.706,-9.853,-2.176
18.890854,-0.706,-9.828,-2.091
18.900803,-0.667,-9.815,-2.169
18.910752,-0.667,-9.815,-2.169
18.920701,-0.628,-9.815,-2.169
18.93065,-0.628,-9.79,-2.085
18.940599,-0.588,-9.821,-2.13
18.950548,-0.588,-9.828,-2.091
18.960497,-0.588,-9.821,-2.13
18.970446,-0.588,-9.821,-2.13
18.980395,-0.549,-9.86,-2.137
18.990344,-0.549,-9.835,-2.053
19.000298,-0.51,-9.86,-2.137
19.010252,-0.588,-9.892,-2.182
19.020206,-0.588,-9.892,-2.182
19.03016,-0.588,-9.912,-2.066
19.040114,-0.588,-9.892,-2.182
19.050068,-0.549,-9.885,-2.221
19.060022,-0.549,-9.867,-2.098
19.069976,-0.549,-9.808,-2.207
19.07993,-0.588,-9.815,-2.169
19.089884,-0.51,-9.853,-2.176
19.099838,-0.51,-9.835,-2.053
19.109792,-0.471,-9.853,-2.176
19.119746,-0.471,-9.86,-2.137
19.1297,-0.51,-9.867,-2.098
19.139662,-0.51,-9.835,-2.053
19.149624,-0.471,-9.874,-2.06
19.159586,-0.471,-9.867,-2.098
19.169548,-0.51,-9.853,-2.176
19.17951,-0.549,-9.828,-2.091
19.189472,-0.588,-9.887,-1.982
19.199434,-0.549,-9.86,-2.137
19.209396,-0.588,-9.86,-2.137
19.219358,-0.549,-9.874,-2.06
19.22932,-0.588,-9.912,-2.066
19.239282,-0.588,-9.821,-2.13
19.249244,-0.628,-9.835,-2.053
19.259206,-0.628,-9.867,-2.098
19.269175,-0.628,-9.894,-1.944
19.279144,-0.628,-9.889,-1.744
19.289113,-0.628,-9.899,-2.144
19.299082,-0.588,-9.899,-2.144
19.309051,-0.51,-9.846,-2.214
19.31902,-0.51,-9.899,-2.144
19.328989,-0.471,-9.853,-2.176
19.338958,-0.471,-9.867,-2.098
19.348927,-0.431,-9.853,-2.176
19.358896,-0.431,-9.86,-2.137
19.368865,-0.431,-9.867,-2.098
19.378834,-0.392,-9.846,-2.214
19.388803,-0.392,-9.853,-2.176
19.398737,-0.314,-9.849,-1.976
19.408671,-0.353,-9.88,-2.021
19.418605,-0.275,-9.833,-2.291
19.428539,-0.353,-9.885,-2.221
19.438473,-0.392,-9.892,-2.182
19.448407,-0.431,-9.892,-2.182
19.458341,-0.431,-9.892,-2.182
19.468275,-0.431,-9.842,-2.014
19.478209,-0.392,-9.846,-2.214
19.488143,-0.392,-9.821,-2.13
19.498077,-0.392,-9.769,-2.201
19.508011,-0.431,-9.803,-2.007
19.517945,-0.431,-9.828,-2.091
19.527879,-0.431,-9.815,-2.169
19.537803,-0.431,-9.853,-2.176
19.547727,-0.431,-9.853,-2.176
19.557651,-0.431,-9.835,-2.053
19.567575,-0.431,-9.86,-2.137
19.577499,-0.392,-9.919,-2.028
19.587423,-0.392,-9.853,-2.176
19.597347,-0.392,-9.867,-2.098
19.607271,-0.353,-9.86,-2.137
19.617195,-0.353,-9.887,-1.982
19.627119,-0.392,-9.84,-2.253
19.637043,-0.392,-9.874,-2.06
19.646967,-0.353,-9.835,-2.053
19.656891,-0.392,-9.86,-2.137
19.666815,-0.353,-9.86,-2.137
19.676729,-0.353,-9.878,-2.26
19.686643,-0.353,-9.899,-2.144
19.696557,-0.392,-9.905,-2.105
19.706471,-0.392,-9.815,-2.169
19.716385,-0.392,-9.905,-2.105
19.726299,-0.353,-9.705,-2.11
19.736213,-0.353,-9.821,-2.13
19.746127,-0.353,-9.887,-1.982
19.756041,-0.392,-9.874,-2.06
19.765955,-0.392,-9.86,-2.137
19.775869,-0.392,-9.828,-2.091
19.785783,-0.314,-9.86,-2.137
19.795697,-0.392,-9.926,-1.989
19.805618,-0.353,-9.926,-1.989
19.815539,-0.353,-9.867,-2.098
19.82546,-0.392,-9.912,-2.066
19.835381,-0.392,-9.867,-2.098
19.845302,-0.431,-9.88,-2.021
19.855223,-0.431,-9.846,-2.214
19.865144,-0.392,-9.874,-2.06
19.875065,-0.392,-9.912,-2.066
19.884986,-0.353,-9.899,-2.144
19.894907,-0.392,-9.899,-2.144
19.904828,-0.392,-9.905,-2.105
19.914749,-0.392,-9.905,-2.105
19.92467,-0.431,-9.828,-2.091
19.934592,-0.431,-9.855,-1.937
19.944514,-0.392,-9.853,-2.176
19.954436,-0.431,-9.853,-2.176
19.964358,-0.431,-9.874,-2.06
19.97428,-0.431,-9.894,-1.944
19.984202,-0.431,-9.919,-2.028
19.994124,-0.431,-9.853,-2.176
20.004046,-0.431,-9.88,-2.021
20.013968,-0.431,-9.964,-1.996
20.02389,-0.471,-9.919,-2.028
20.033812,-0.431,-9.926,-1.989
20.043734,-0.471,-9.899,-2.144
20.053656,-0.471,-9.912,-2.066
20.063578,-0.431,-9.905,-2.105
20.07348,-0.471,-9.899,-2.144
20.083382,-0.431,-9.951,-2.073
20.093284,-0.471,-9.919,-2.028
20.103186,-0.431,-9.86,-2.137
20.113088,-0.392,-9.86,-2.137
20.12299,-0.431,-9.899,-2.144
20.132892,-0.471,-9.867,-2.098
20.142794,-0.431,-9.867,-2.098
20.152696,-0.471,-9.867,-2.098
20.162598,-0.471,-9.828,-2.091
20.1725,-0.471,-9.899,-2.144
20.182402,-0.471,-9.899,-2.144
20.192304,-0.471,-9.892,-2.182
20.202206,-0.51,-9.905,-2.105
20.212082,-0.51,-9.853,-2.176
20.221958,-0.51,-9.835,-2.053
20.231834,-0.51,-9.79,-2.085
20.24171,-0.51,-9.815,-2.169
20.251586,-0.471,-9.815,-2.169
20.261462,-0.51,-9.815,-2.169
20.271338,-0.549,-9.821,-2.13
20.281214,-0.51,-9.835,-2.053
20.29109,-0.51,-9.86,-2.137
20.300966,-0.471,-9.853,-2.176
20.310842,-0.471,-9.833,-2.291
20.320718,-0.471,-9.853,-2.176
20.330594,-0.471,-9.853,-2.176
20.340458,-0.471,-9.86,-2.137
20.350322,-0.431,-9.833,-2.291
20.360186,-0.431,-9.846,-2.214
20.37005,-0.471,-9.86,-2.137
20.379914,-0.471,-9.821,-2.13
20.389778,-0.471,-9.86,-2.137
20.399642,-0.471,-9.867,-2.098
20.409506,-0.431,-9.892,-2.182
20.41937,-0.431,-9.86,-2.137
20.429234,-0.471,-9.874,-2.06
20.439098,-0.431,-9.86,-2.137
20.448962,-0.471,-9.846,-2.214
20.458826,-0.431,-9.86,-2.137
20.468698,-0.392,-9.853,-2.176
20.47857,-0.392,-9.86,-2.137
20.488442,-0.431,-9.88,-2.021
20.498314,-0.392,-9.86,-2.137
20.508186,-0.392,-9.892,-2.182
20.518058,-0.392,-9.86,-2.137
20.52793,-0.431,-9.853,-2.176
20.537802,-0.431,-9.821,-2.13
20.547674,-0.431,-9.821,-2.13
20.557546,-0.392,-9.815,-2.169
20.567418,-0.431,-9.84,-2.253
20.57729,-0.431,-9.867,-2.098
20.587162,-0.431,-9.899,-2.144
20.597047,-0.392,-9.905,-2.105
20.606932,-0.431,-9.905,-2.105
20.616817,-0.471,-9.86,-2.137
20.626702,-0.431,-9.846,-2.214
20.636587,-0.431,-9.846,-2.214
20.646472,-0.353,-9.853,-2.176
20.656357,-0.353,-9.878,-2.26
20.666242,-0.314,-9.846,-2.214
20.676127,-0.314,-9.821,-2.13
20.686012,-0.353,-9.853,-2.176
20.695897,-0.392,-9.815,-2.169
20.705782,-0.392,-9.808,-2.207
20.715667,-0.392,-9.801,-2.246
20.725577,-0.431,-9.801,-2.246
20.735487,-0.392,-9.874,-2.06
20.745397,-0.431,-9.821,-2.13
20.755307,-0.392,-9.815,-2.169
20.765217,-0.471,-9.846,-2.214
20.775127,-0.431,-9.867,-2.098
20.785037,-0.392,-9.833,-2.291
20.794947,-0.431,-9.88,-2.021
20.804857,-0.392,-9.853,-2.176
20.814767,-0.431,-9.892,-2.182
20.824677,-0.353,-9.905,-2.105
20.834587,-0.392,-9.924,-2.228
20.844497,-0.353,-9.892,-2.182
20.854388,-0.392,-9.926,-1.989
20.864279,-0.353,-9.933,-1.951
20.87417,-0.353,-9.846,-2.214
20.884061,-0.314,-9.821,-2.13
20.893952,-0.353,-9.853,-2.176
20.903843,-0.392,-9.878,-2.26
20.913734,-0.392,-9.86,-2.137
20.923625,-0.392,-9.853,-2.176
20.933516,-0.392,-9.892,-2.182
20.943407,-0.392,-9.84,-2.253
20.953298,-0.392,-9.84,-2.253
20.963189,-0.431,-9.846,-2.214
20.97308,-0.471,-9.846,-2.214
20.982971,-0.431,-9.846,-2.214
20.992863,-0.353,-9.835,-2.053
21.002755,-0.392,-9.776,-2.162
21.012647,-0.431,-9.86,-2.137
21.022539,-0.431,-9.808,-2.207
21.032431,-0.431,-9.808,-2.207
21.042323,-0.431,-9.815,-2.169
21.052215,-0.431,-9.853,-2.176
21.062107,-0.431,-9.853,-2.176
21.071999,-0.392,-9.846,-2.214
21.081891,-0.431,-9.826,-2.33
21.091783,-0.392,-9.885,-2.221
21.101675,-0.392,-9.86,-2.137
21.111567,-0.392,-9.899,-2.144
21.121463,-0.353,-9.874,-2.06
21.131359,-0.353,-9.846,-2.214
21.141255,-0.353,-9.93,-2.189
21.151151,-0.353,-9.885,-2.221
21.161047,-0.392,-9.878,-2.26
21.170943,-0.353,-9.892,-2.182
21.180839,-0.353,-9.846,-2.214
21.190735,-0.392,-9.878,-2.26
21.200631,-0.392,-9.833,-2.291
21.210527,-0.392,-9.84,-2.253
21.220423,-0.431,-9.878,-2.26
21.230319,-0.431,-9.821,-2.13
21.240215,-0.431,-9.84,-2.253
21.250126,-0.392,-9.853,-2.176
21.260037,-0.392,-9.853,-2.176
21.269948,-0.392,-9.846,-2.214
21.279859,-0.353,-9.84,-2.253
21.28977,-0.353,-9.846,-2.214
21.299681,-0.353,-9.801,-2.246
21.309592,-0.353,-9.815,-2.169
21.319503,-0.431,-9.853,-2.176
21.329414,-0.431,-9.833,-2.291
21.339325,-0.431,-9.833,-2.291
21.349236,-0.392,-9.878,-2.26
21.359147,-0.392,-9.878,-2.26
21.369058,-0.392,-9.892,-2.182
21.378982,-0.353,-9.899,-2.144
21.388906,-0.353,-9.899,-2.144
21.39883,-0.353,-9.871,-2.298
21.408754,-0.353,-9.899,-2.144
21.418678,-0.353,-9.892,-2.182
21.428602,-0.314,-9.878,-2.26
21.438526,-0.353,-9.84,-2.253
21.44845,-0.353,-9.84,-2.253
21.458374,-0.353,-9.815,-2.169
21.468298,-0.392,-9.808,-2.207
21.478222,-0.431,-9.84,-2.253
21.488146,-0.392,-9.801,-2.246
21.49807,-0.431,-9.815,-2.169
21.507994,-0.431,-9.808,-2.207
21.517924,-0.353,-9.821,-2.13
21.527854,-0.392,-9.865,-2.337
21.537784,-0.431,-9.821,-2.13
21.547714,-0.431,-9.846,-2.214
21.557644,-0.471,-9.801,-2.246
21.567574,-0.431,-9.846,-2.214
21.577504,-0.431,-9.853,-2.176
21.587434,-0.431,-9.892,-2.182
21.597364,-0.431,-9.885,-2.221
21.607294,-0.353,-9.899,-2.144
21.617224,-0.353,-9.899,-2.144
21.627154,-0.353,-9.93,-2.189
21.637084,-0.392,-9.878,-2.26
21.647031,-0.353,-9.835,-2.053
21.656978,-0.392,-9.826,-2.33
21.666925,-0.353,-9.892,-2.182
21.676872,-0.353,-9.846,-2.214
21.686819,-0.392,-9.678,-2.264
21.696766,-0.392,-9.794,-2.285
21.706713,-0.392,-9.846,-2.214
21.71666,-0.392,-9.826,-2.33
21.726607,-0.392,-9.878,-2.26
21.736554,-0.392,-9.853,-2.176
21.746501,-0.392,-9.853,-2.176
21.756448,-0.392,-9.846,-2.214
21.766395,-0.392,-9.815,-2.169
21.776342,-0.392,-9.821,-2.13
21.786316,-0.353,-9.835,-2.053
21.79629,-0.392,-9.815,-2.169
21.806264,-0.392,-9.815,-2.169
21.816238,-0.392,-9.815,-2.169
21.826212,-0.392,-9.801,-2.246
21.836186,-0.392,-9.833,-2.291
21.84616,-0.392,-9.853,-2.176
21.856134,-0.353,-9.846,-2.214
21.866108,-0.392,-9.878,-2.26
21.876082,-0.353,-9.867,-2.098
21.886056,-0.392,-9.84,-2.253
21.89603,-0.392,-9.899,-2.144
21.905989,-0.392,-9.808,-2.207
21.915948,-0.431,-9.84,-2.253
21.925907,-0.471,-9.86,-2.137
21.935866,-0.471,-9.821,-2.13
21.945825,-0.431,-9.84,-2.253
21.955784,-0.392,-9.794,-2.285
21.965743,-0.392,-9.853,-2.176
21.975702,-0.431,-9.86,-2.137
21.985661,-0.431,-9.853,-2.176
21.99562,-0.431,-9.878,-2.26
22.005579,-0.392,-9.853,-2.176
22.015538,-0.392,-9.853,-2.176
22.025497,-0.353,-9.808,-2.207
22.035456,-0.353,-9.787,-2.323
22.0454,-0.353,-9.821,-2.13
22.055344,-0.392,-9.849,-1.976
22.065288,-0.392,-9.815,-2.169
22.075232,-0.431,-9.815,-2.169
22.085176,-0.392,-9.794,-2.285
22.09512,-0.431,-9.853,-2.176
22.105064,-0.431,-9.833,-2.291
22.115008,-0.431,-9.833,-2.291
22.124952,-0.431,-9.846,-2.214
22.134896,-0.392,-9.776,-2.162
22.14484,-0.392,-9.815,-2.169
22.154784,-0.392,-9.867,-2.098
22.164728,-0.353,-9.846,-2.214
22.174666,-0.392,-9.878,-2.26
22.184604,-0.392,-9.885,-2.221
22.194542,-0.392,-9.84,-2.253
22.20448,-0.392,-9.846,-2.214
22.214418,-0.392,-9.815,-2.169
22.224356,-0.431,-9.833,-2.291
22.234294,-0.431,-9.853,-2.176
22.244232,-0.431,-9.853,-2.176
22.25417,-0.471,-9.833,-2.291
22.264108,-0.51,-9.801,-2.246
22.274046,-0.471,-9.821,-2.13
22.283984,-0.471,-9.853,-2.176
22.293922,-0.471,-9.853,-2.176
22.303858,-0.471,-9.871,-2.298
22.313794,-0.471,-9.892,-2.182
22.32373,-0.471,-9.885,-2.221
22.333666,-0.471,-9.86,-2.137
22.343602,-0.51,-9.878,-2.26
22.353538,-0.471,-9.867,-2.098
22.363474,-0.431,-9.892,-2.182
22.37341,-0.431,-9.885,-2.221
22.383346,-0.431,-9.846,-2.214
22.393282,-0.431,-9.846,-2.214
22.403218,-0.392,-9.846,-2.214
22.413154,-0.392,-9.892,-2.182
22.42309,-0.431,-9.885,-2.221
22.433026,-0.431,-9.846,-2.214
22.442962,-0.431,-9.853,-2.176
22.452879,-0.471,-9.801,-2.246
22.462796,-0.471,-9.853,-2.176
22.472713,-0.471,-9.846,-2.214
22.48263,-0.471,-9.84,-2.253
22.492547,-0.471,-9.815,-2.169
22.502464,-0.51,-9.801,-2.246
22.512381,-0.51,-9.769,-2.201
22.522298,-0.51,-9.815,-2.169
22.532215,-0.51,-9.801,-2.246
22.542132,-0.51,-9.815,-2.169
22.552049,-0.51,-9.808,-2.207
22.561966,-0.471,-9.808,-2.207
22.571883,-0.471,-9.815,-2.169
22.5818,-0.471,-9.808,-2.207
22.591717,-0.471,-9.801,-2.246
22.601634,-0.471,-9.867,-2.098
22.611551,-0.471,-9.84,-2.253
22.621468,-0.51,-9.84,-2.253
22.631385,-0.471,-9.84,-2.253
22.641302,-0.471,-9.853,-2.176
22.651219,-0.431,-9.84,-2.253
22.661136,-0.471,-9.846,-2.214
22.671053,-0.431,-9.892,-2.182
22.68097,-0.471,-9.84,-2.253
22.690887,-0.471,-9.885,-2.221
22.700789,-0.431,-9.894,-1.944
22.710691,-0.431,-9.84,-2.253
22.720593,-0.431,-9.846,-2.214
22.730495,-0.471,-9.885,-2.221
22.740397,-0.431,-9.853,-2.176
22.750299,-0.471,-9.853,-2.176
22.760201,-0.471,-9.853,-2.176
22.770103,-0.431,-9.801,-2.246
22.780005,-0.431,-9.846,-2.214
22.789907,-0.431,-9.833,-2.291
22.799809,-0.471,-9.801,-2.246
22.809711,-0.471,-9.801,-2.246
22.819613,-0.431,-9.801,-2.246
22.829515,-0.471,-9.846,-2.214
22.839438,-0.471,-9.878,-2.26
22.849361,-0.471,-9.833,-2.291
22.859284,-0.51,-9.878,-2.26
22.869207,-0.51,-9.878,-2.26
22.87913,-0.549,-9.878,-2.26
22.889053,-0.51,-9.871,-2.298
22.898976,-0.51,-9.885,-2.221
22.908899,-0.51,-9.846,-2.214
22.918822,-0.471,-9.808,-2.207
22.928745,-0.51,-9.84,-2.253
22.938668,-0.471,-9.846,-2.214
22.948591,-0.431,-9.826,-2.33
22.958514,-0.431,-9.84,-2.253
22.968443,-0.431,-9.801,-2.246
22.978372,-0.353,-9.794,-2.285
22.988301,-0.353,-9.84,-2.253
22.99823,-0.392,-9.84,-2.253
23.008159,-0.392,-9.801,-2.246
23.018088,-0.392,-9.808,-2.207
23.028017,-0.431,-9.808,-2.207
23.037946,-0.431,-9.833,-2.291
23.047875,-0.431,-9.801,-2.246
23.057804,-0.431,-9.821,-2.13
23.067733,-0.431,-9.815,-2.169
23.077662,-0.431,-9.846,-2.214
23.087591,-0.431,-9.846,-2.214
23.09752,-0.471,-9.892,-2.182
23.107451,-0.431,-9.905,-2.105
23.117382,-0.471,-9.86,-2.137
23.127313,-0.431,-9.93,-2.189
23.137244,-0.431,-9.84,-2.253
23.147175,-0.392,-9.899,-2.144
23.157106,-0.353,-9.846,-2.214
23.167037,-0.353,-9.853,-2.176
23.176968,-0.353,-9.86,-2.137
23.186899,-0.431,-9.846,-2.214
23.19683,-0.431,-9.878,-2.26
23.206761,-0.431,-9.878,-2.26
23.216692,-0.392,-9.853,-2.176
23.226623,-0.431,-9.846,-2.214
23.236566,-0.353,-9.853,-2.176
23.246509,-0.353,-9.84,-2.253
23.256452,-0.392,-9.84,-2.253
23.266395,-0.431,-9.885,-2.221
23.276338,-0.471,-9.853,-2.176
23.286281,-0.471,-9.801,-2.246
23.296224,-0.471,-9.801,-2.246
23.306167,-0.471,-9.794,-2.285
23.31611,-0.431,-9.815,-2.169
23.326053,-0.431,-9.794,-2.285
23.335996,-0.431,-9.762,-2.239
23.345939,-0.431,-9.808,-2.207
23.355882,-0.431,-9.84,-2.253
23.365817,-0.51,-9.787,-2.323
23.375752,-0.51,-9.846,-2.214
23.385687,-0.471,-9.878,-2.26
23.395622,-0.471,-9.846,-2.214
23.405557,-0.471,-9.846,-2.214
23.415492,-0.471,-9.808,-2.207
23.425427,-0.431,-9.808,-2.207
23.435362,-0.431,-9.853,-2.176
23.445297,-0.431,-9.84,-2.253
23.455232,-0.392,-9.878,-2.26
23.465167,-0.431,-9.937,-2.151
23.475102,-0.392,-9.885,-2.221
23.485037,-0.353,-9.892,-2.182
23.494972,-0.392,-9.892,-2.182
23.504903,-0.392,-9.905,-2.105
23.514834,-0.353,-9.885,-2.221
23.524765,-0.353,-9.846,-2.214
23.534696,-0.353,-9.846,-2.214
23.544627,-0.353,-9.815,-2.169
23.554558,-0.314,-9.769,-2.201
23.564489,-0.275,-9.762,-2.239
23.57442,-0.314,-9.815,-2.169
23.584351,-0.314,-9.84,-2.253
23.594282,-0.314,-9.846,-2.214
23.604213,-0.275,-9.84,-2.253
23.614144,-0.314,-9.846,-2.214
23.624075,-0.314,-9.846,-2.214
23.634008,-0.353,-9.88,-2.021
23.643941,-0.353,-9.885,-2.221
23.653874,-0.314,-9.885,-2.221
23.663807,-0.353,-9.878,-2.26
23.67374,-0.353,-9.892,-2.182
23.683673,-0.353,-9.846,-2.214
23.693606,-0.314,-9.808,-2.207
23.703539,-0.353,-9.846,-2.214
23.713472,-0.314,-9.874,-2.06
23.723405,-0.314,-9.853,-2.176
23.733338,-0.314,-9.787,-2.323
23.743271,-0.314,-9.846,-2.214
23.753204,-0.275,-9.846,-2.214
23.763146,-0.275,-9.86,-2.137
23.773088,-0.275,-9.88,-2.021
23.78303,-0.314,-9.833,-2.291
23.792972,-0.314,-9.815,-2.169
23.802914,-0.353,-9.853,-2.176
23.812856,-0.353,-9.853,-2.176
23.822798,-0.392,-9.821,-2.13
23.83274,-0.353,-9.846,-2.214
23.842682,-0.353,-9.846,-2.214
23.852624,-0.392,-9.853,-2.176
23.862566,-0.392,-9.874,-2.06
23.872508,-0.392,-9.846,-2.214
23.88245,-0.392,-9.86,-2.137
23.892409,-0.392,-9.885,-2.221
23.902368,-0.353,-9.912,-2.066
23.912327,-0.353,-9.937,-2.151
23.922286,-0.314,-9.93,-2.189
23.932245,-0.314,-9.917,-2.266
23.942204,-0.353,-9.899,-2.144
23.952163,-0.314,-9.905,-2.105
23.962122,-0.353,-9.899,-2.144
23.972081,-0.392,-9.853,-2.176
23.98204,-0.353,-9.853,-2.176
23.991999,-0.353,-9.899,-2.144
24.001958,-0.392,-9.846,-2.214
24.011917,-0.392,-9.853,-2.176
24.021876,-0.392,-9.815,-2.169
24.031841,-0.392,-9.853,-2.176
24.041806,-0.392,-9.801,-2.246
24.051771,-0.392,-9.801,-2.246
24.061736,-0.431,-9.853,-2.176
24.071701,-0.392,-9.833,-2.291
24.081666,-0.353,-9.808,-2.207
24.091631,-0.353,-9.808,-2.207
24.101596,-0.392,-9.762,-2.239
24.111561,-0.353,-9.808,-2.207
24.121526,-0.353,-9.801,-2.246
24.131491,-0.353,-9.846,-2.214
24.141456,-0.353,-9.833,-2.291
24.151421,-0.392,-9.846,-2.214
24.161352,-0.392,-9.86,-2.137
24.171283,-0.353,-9.874,-2.06
24.181214,-0.392,-9.892,-2.182
24.191145,-0.392,-9.892,-2.182
24.201076,-0.431,-9.905,-2.105
24.211007,-0.392,-9.846,-2.214
24.220938,-0.353,-9.878,-2.26
24.230869,-0.353,-9.892,-2.182
24.2408,-0.353,-9.878,-2.26
24.250731,-0.392,-9.846,-2.214
24.260662,-0.392,-9.821,-2.13
24.270593,-0.431,-9.853,-2.176
24.280524,-0.392,-9.815,-2.169
24.290455,-0.431,-9.86,-2.137
24.300356,-0.314,-9.949,-2.312
24.310257,-0.392,-9.833,-2.291
24.320158,-0.392,-9.86,-2.137
24.330059,-0.431,-9.846,-2.214
24.33996,-0.431,-9.853,-2.176
24.349861,-0.431,-9.815,-2.169
24.359762,-0.392,-9.84,-2.253
24.369663,-0.392,-9.853,-2.176
24.379564,-0.392,-9.801,-2.246
24.389465,-0.392,-9.853,-2.176
24.399366,-0.431,-9.878,-2.26
24.409267,-0.431,-9.821,-2.13
24.419168,-0.431,-9.84,-2.253
24.42902,-0.392,-9.899,-2.144
24.438872,-0.431,-9.878,-2.26
24.448724,-0.431,-9.853,-2.176
24.458576,-0.471,-9.899,-2.144
24.468428,-0.431,-9.867,-2.098
24.47828,-0.431,-9.867,-2.098
24.488132,-0.431,-9.899,-2.144
24.497984,-0.431,-9.86,-2.137
24.507836,-0.471,-9.84,-2.253
24.517688,-0.471,-9.853,-2.176
24.52754,-0.471,-9.815,-2.169
24.537392,-0.471,-9.853,-2.176
24.547244,-0.392,-9.885,-2.221
24.557096,-0.392,-9.892,-2.182
24.566928,-0.431,-9.871,-2.298
24.57676,-0.392,-9.892,-2.182
24.586592,-0.431,-9.86,-2.137
24.596424,-0.431,-9.846,-2.214
24.606256,-0.431,-9.853,-2.176
24.616088,-0.392,-9.853,-2.176
24.62592,-0.431,-9.815,-2.169
24.635752,-0.431,-9.815,-2.169
24.645584,-0.471,-9.808,-2.207
24.655416,-0.51,-9.853,-2.176
24.665248,-0.51,-9.846,-2.214
24.67508,-0.549,-9.846,-2.214
24.684912,-0.51,-9.867,-2.098
24.694724,-0.51,-9.874,-2.06
24.704536,-0.471,-9.933,-1.951
24.714348,-0.51,-9.865,-2.337
24.72416,-0.471,-9.878,-2.26
24.733972,-0.431,-9.896,-2.382
24.743784,-0.431,-9.896,-2.382
24.753596,-0.392,-9.917,-2.266
24.763408,-0.392,-9.962,-2.235
24.77322,-0.392,-9.917,-2.266
24.783032,-0.353,-10.001,-2.241
24.792844,-0.353,-9.98,-2.357
24.802656,-0.353,-9.962,-2.235
24.812468,-0.314,-9.917,-2.266
24.822271,-0.314,-9.942,-2.35
24.832074,-0.275,-10.396,-3.387
24.841877,-0.275,-10.828,-2.746
24.85168,-0.314,-10.346,-2.541
24.861483,-0.392,-9.728,-2.432
24.871286,-0.314,-9.567,-2.444
24.881089,-0.275,-9.737,-2.155
24.890892,-0.275,-9.776,-2.162
24.900695,-0.314,-9.651,-2.419
24.910498,-0.275,-9.569,-2.205
24.920301,-0.196,-9.524,-2.237
24.930104,-0.157,-9.51,-2.314
24.939907,-0.157,-9.446,-2.223
24.94971,-0.157,-9.451,-2.423
24.959516,-0.118,-9.515,-2.514
24.969322,-0.157,-9.544,-2.121
24.979128,-0.196,-9.587,-2.328
24.988934,-0.235,-9.601,-2.251
24.99874,-0.235,-9.658,-2.38
25.008546,-0.275,-9.749,-2.316
25.018352,-0.353,-9.762,-2.239
25.028158,-0.392,-9.858,-2.375
25.037964,-0.392,-9.896,-2.382
25.04777,-0.431,-9.903,-2.344
25.057576,-0.51,-9.928,-2.428
25.067382,-0.51,-9.974,-2.396
25.077188,-0.549,-9.974,-2.396
25.087013,-0.628,-9.974,-2.396
25.096838,-0.706,-9.942,-2.35
25.106663,-0.706,-9.96,-2.473
25.116488,-0.706,-9.96,-2.473
25.126313,-0.706,-9.953,-2.512
25.136138,-0.745,-9.91,-2.305
25.145963,-0.785,-9.826,-2.33
25.155788,-0.745,-9.792,-2.523
25.165613,-0.745,-9.774,-2.4
25.175438,-0.745,-9.805,-2.446
25.185263,-0.706,-9.767,-2.439
25.195088,-0.667,-9.749,-2.316
25.204913,-0.628,-9.735,-2.394
25.214738,-0.628,-9.749,-2.316
25.224563,-0.628,-9.71,-2.31
25.234388,-0.588,-9.69,-2.426
25.244213,-0.549,-9.651,-2.419
25.254038,-0.51,-9.658,-2.38
25.263863,-0.549,-9.651,-2.419
25.273688,-0.51,-9.696,-2.387
25.283513,-0.51,-9.703,-2.348
25.293338,-0.549,-9.742,-2.355
25.303163,-0.51,-9.742,-2.355
25.312988,-0.471,-9.76,-2.478
25.322813,-0.471,-9.78,-2.362
25.332638,-0.51,-9.78,-2.362
25.342463,-0.431,-9.774,-2.4
25.352334,-0.431,-9.792,-2.523
25.362205,-0.431,-9.851,-2.414
25.372076,-0.431,-9.876,-2.498
25.381947,-0.353,-9.869,-2.537
25.391818,-0.353,-9.851,-2.414
25.401689,-0.353,-9.883,-2.46
25.41156,-0.353,-9.928,-2.428
25.421431,-0.314,-9.896,-2.382
25.431302,-0.353,-9.903,-2.344
25.441173,-0.353,-9.865,-2.337
25.451044,-0.392,-9.826,-2.33
25.460915,-0.431,-9.808,-2.207
25.470786,-0.392,-9.721,-2.471
25.480687,-0.431,-9.76,-2.478
25.490588,-0.392,-9.755,-2.278
25.500489,-0.392,-9.735,-2.394
25.51039,-0.471,-9.84,-2.253
25.520291,-0.431,-9.819,-2.369
25.530192,-0.471,-9.819,-2.369
25.540093,-0.471,-9.833,-2.291
25.549994,-0.471,-9.833,-2.291
25.559895,-0.471,-9.819,-2.369
25.569796,-0.471,-9.819,-2.369
25.579697,-0.471,-9.833,-2.291
25.589598,-0.471,-9.787,-2.323
25.599499,-0.471,-9.755,-2.278
25.609389,-0.549,-9.762,-2.239
25.619279,-0.471,-9.749,-2.316
25.629169,-0.471,-9.801,-2.246
25.639059,-0.431,-9.84,-2.253
25.648949,-0.471,-9.826,-2.33
25.658839,-0.51,-9.865,-2.337
25.668729,-0.51,-9.878,-2.26
25.678619,-0.51,-9.853,-2.176
25.688509,-0.51,-9.84,-2.253
25.698399,-0.549,-9.84,-2.253
25.708289,-0.51,-9.801,-2.246
25.718179,-0.51,-9.833,-2.291
25.728069,-0.471,-9.801,-2.246
25.737959,-0.51,-9.794,-2.285
25.747851,-0.549,-9.828,-2.091
25.757743,-0.51,-9.794,-2.285
25.767635,-0.549,-9.815,-2.169
25.777527,-0.588,-9.755,-2.278
25.787419,-0.549,-9.762,-2.239
25.797311,-0.51,-9.783,-2.123
25.807203,-0.51,-9.762,-2.239
25.817095,-0.51,-9.815,-2.169
25.826987,-0.51,-9.815,-2.169
25.836879,-0.51,-9.84,-2.253
25.846771,-0.588,-9.86,-2.137
25.856663,-0.588,-9.833,-2.291
25.866555,-0.549,-9.808,-2.207
25.876447,-0.51,-9.801,-2.246
25.886359,-0.51,-9.79,-2.085
25.896271,-0.549,-9.821,-2.13
25.906183,-0.51,-9.867,-2.098
25.916095,-0.549,-9.874,-2.06
25.926007,-0.549,-9.905,-2.105
25.935919,-0.549,-9.971,-1.957
25.945831,-0.549,-9.944,-2.112
25.955743,-0.628,-9.867,-2.098
25.965655,-0.628,-9.86,-2.137
25.975567,-0.628,-9.874,-2.06
25.985479,-0.588,-9.905,-2.105
25.995391,-0.628,-9.894,-1.944
26.005325,-0.628,-9.869,-1.86
26.015259,-0.628,-9.894,-1.944
26.025193,-0.628,-9.901,-1.905
26.035127,-0.667,-9.894,-1.944
26.045061,-0.667,-9.933,-1.951
26.054995,-0.706,-9.939,-1.912
26.064929,-0.706,-9.939,-1.912
26.074863,-0.667,-9.921,-1.789
26.084797,-0.628,-9.933,-1.951
26.094731,-0.588,-9.946,-1.873
26.104665,-0.628,-9.953,-1.835
26.114599,-0.628,-9.992,-1.841
26.124533,-0.588,-9.985,-1.88
26.134514,-0.588,-9.953,-1.835
26.144495,-0.588,-9.883,-1.782
26.154476,-0.588,-9.894,-1.944
26.164457,-0.549,-9.921,-1.789
26.174438,-0.51,-9.862,-1.898
26.184419,-0.51,-9.889,-1.744
26.1944,-0.51,-9.876,-1.821
26.204381,-0.549,-9.889,-1.744
26.214362,-0.588,-9.908,-1.866
26.224343,-0.588,-9.928,-1.751
26.234324,-0.588,-9.921,-1.789
26.244305,-0.628,-9.76,-1.801
26.254286,-0.667,-9.876,-1.821
26.264267,-0.706,-9.869,-1.86
26.274254,-0.785,-9.903,-1.667
26.284241,-0.785,-9.844,-1.776
26.294228,-0.824,-9.926,-1.989
26.304215,-0.902,-9.939,-1.912
26.314202,-0.902,-9.933,-1.951
26.324189,-0.863,-9.921,-1.789
26.334176,-0.824,-9.869,-1.86
26.344163,-0.824,-9.83,-1.853
26.35415,-0.785,-9.76,-1.801
26.364137,-0.785,-9.76,-1.801
26.374124,-0.745,-9.78,-1.685
26.384111,-0.745,-9.76,-1.801
26.394098,-0.667,-9.819,-1.692
26.404129,-0.588,-9.787,-1.646
26.41416,-0.588,-9.885,-1.544
26.424191,-0.51,-9.899,-1.467
26.434222,-0.392,-9.828,-1.414
26.444253,-0.392,-9.803,-1.33
26.454284,-0.275,-9.796,-1.369
26.464315,-0.235,-9.867,-1.421
26.474346,-0.196,-9.951,-1.396
26.484377,-0.157,-10.08,-1.339
26.494408,-0.118,-10.144,-1.43
26.504439,-0.078,-10.151,-1.392
26.51447,-0.039,-10.26,-1.451
26.524501,0.0,-10.403,-1.317
26.534532,0.039,-10.446,-1.523
26.544539,0.078,-10.373,-1.71
26.554546,0.039,-10.408,-1.516
26.564553,0.039,-10.383,-1.432
26.57456,0.078,-10.271,-1.612
26.584567,0.039,-10.194,-1.598
26.594574,0.0,-10.123,-1.546
26.604581,0.0,-10.064,-1.655
26.614588,-0.078,-9.98,-1.68
26.624595,-0.157,-9.921,-1.789
26.634602,-0.196,-9.928,-1.751
26.644609,-0.235,-9.883,-1.782
26.654616,-0.314,-9.921,-1.789
26.664623,-0.392,-9.862,-1.898
26.67463,-0.431,-9.817,-1.93
26.68462,-0.471,-9.81,-1.969
26.69461,-0.471,-9.876,-1.821
26.7046,-0.392,-9.796,-2.046
26.71459,-0.471,-9.792,-1.846
26.72458,-0.471,-9.771,-1.962
26.73457,-0.471,-9.726,-1.994
26.74456,-0.392,-9.785,-1.885
26.75455,-0.431,-9.687,-1.987
26.76454,-0.353,-9.76,-1.801
26.77453,-0.353,-9.721,-1.794
26.78452,-0.275,-9.771,-1.962
26.79451,-0.314,-9.771,-1.962
26.8045,-0.275,-9.799,-1.807
26.814502,-0.157,-9.799,-1.807
26.824504,-0.078,-9.837,-1.814
26.834506,-0.078,-9.883,-1.782
26.844508,-0.078,-9.858,-1.698
26.85451,0.0,-9.883,-1.782
26.864512,0.039,-9.967,-1.757
26.874514,0.039,-10.069,-1.855
26.884516,0.0,-10.153,-1.83
26.894518,-0.039,-10.101,-1.901
26.90452,-0.078,-10.16,-1.791
26.914522,-0.039,-10.019,-1.687
26.924524,-0.078,-9.767,-1.762
26.934526,-0.078,-9.735,-1.717
26.944528,-0.118,-9.78,-1.685
26.954505,-0.157,-9.889,-1.744
26.964482,-0.235,-9.989,-2.08
26.974459,-0.275,-10.028,-2.087
26.984436,-0.235,-9.974,-1.719
26.994413,-0.235,-9.919,-2.028
27.00439,-0.196,-9.887,-1.982
27.014367,-0.078,-9.826,-1.653
27.024344,-0.039,-9.605,-1.773
27.034321,-0.039,-9.462,-1.907
27.044298,0.078,-9.399,-1.817
27.054275,0.078,-9.399,-1.817
27.064252,0.118,-9.44,-1.585
27.074229,0.157,-9.44,-1.585
27.084206,0.196,-9.633,-1.619
27.094147,0.235,-9.86,-1.46
27.104088,0.196,-9.944,-1.435
27.114029,0.157,-9.985,-1.203
27.12397,0.157,-10.055,-1.255
27.133911,0.078,-10.153,-1.153
27.143852,0.039,-10.257,-1.012
27.153793,0.0,-10.289,-1.057
27.163734,-0.078,-10.38,-0.994
27.173675,-0.157,-10.496,-1.014
27.183616,-0.235,-10.51,-0.937
27.193557,-0.314,-10.485,-0.853
27.203498,-0.392,-10.432,-0.923
27.213439,-0.392,-10.369,-0.833
27.223387,-0.51,-10.335,-1.026
27.233335,-0.51,-10.407,-0.839
27.243283,-0.549,-10.369,-0.833
27.253231,-0.588,-10.285,-0.858
27.263179,-0.628,-10.264,-0.973
27.273127,-0.706,-10.328,-1.064
27.283075,-0.706,-10.303,-0.98
27.293023,-0.706,-10.251,-1.051
27.302971,-0.667,-10.205,-1.082
27.312919,-0.667,-10.192,-1.16
27.322867,-0.667,-10.114,-1.146
27.332815,-0.667,-10.094,-1.262
27.342763,-0.588,-10.062,-1.217
27.352675,-0.471,-10.076,-1.139
27.362587,-0.431,-10.08,-1.339
27.372499,-0.353,-10.06,-1.455
27.382411,-0.275,-10.092,-1.501
27.392323,-0.235,-10.06,-1.455
27.402235,-0.275,-9.955,-1.596
27.412147,-0.235,-9.917,-1.589
27.422059,-0.196,-9.878,-1.582
27.431971,-0.157,-9.878,-1.582
27.441883,-0.157,-9.826,-1.653
27.451795,-0.157,-9.735,-1.717
27.461707,-0.157,-9.721,-1.794
27.471619,-0.118,-9.742,-1.678
27.481531,-0.118,-9.749,-1.639
27.491426,-0.118,-9.742,-1.678
27.501321,-0.118,-9.801,-1.569
27.511216,-0.118,-9.787,-1.646
27.521111,-0.078,-9.749,-1.639
27.531006,-0.039,-9.728,-1.755
27.540901,-0.078,-9.721,-1.794
27.550796,-0.039,-9.753,-1.839
27.560691,-0.039,-9.767,-1.762
27.570586,-0.078,-9.889,-1.744
27.580481,-0.118,-9.889,-1.744
27.590376,-0.157,-9.914,-1.828
27.600271,-0.157,-9.921,-1.789
27.610166,-0.196,-9.967,-1.757
27.620029,-0.157,-9.928,-1.751
27.629892,-0.118,-9.969,-1.519
27.639755,-0.118,-9.967,-1.757
27.649618,-0.118,-10.019,-1.687
27.659481,-0.039,-10.039,-1.571
27.669344,-0.078,-10.044,-1.771
27.679207,-0.078,-10.019,-1.687
27.68907,-0.078,-9.987,-1.642
27.698933,-0.078,-9.928,-1.751
27.708796,-0.078,-9.949,-1.635
27.718659,-0.118,-9.969,-1.519
27.728522,-0.118,-9.921,-1.789
27.738385,-0.118,-9.949,-1.635
27.748248,-0.157,-9.942,-1.673
27.758123,-0.157,-9.987,-1.642
27.767998,-0.157,-9.928,-1.751
27.777873,-0.157,-9.974,-1.719
27.787748,-0.157,-9.889,-1.744
27.797623,-0.157,-9.928,-1.751
27.807498,-0.118,-9.921,-1.789
27.817373,-0.157,-9.91,-1.628
27.827248,-0.157,-9.935,-1.712
27.837123,-0.118,-9.896,-1.705
27.846998,-0.157,-9.949,-1.635
27.856873,-0.118,-9.883,-1.782
27.866748,-0.157,-9.91,-1.628
27.876623,-0.196,-9.91,-1.628
27.886493,-0.275,-9.96,-1.796
27.896363,-0.275,-9.889,-1.744
27.906233,-0.196,-9.862,-1.898
27.916103,-0.196,-9.903,-1.667
27.925973,-0.235,-9.949,-1.635
27.935843,-0.235,-9.942,-1.673
27.945713,-0.275,-9.942,-1.673
27.955583,-0.275,-9.928,-1.751
27.965453,-0.275,-9.974,-1.719
27.975323,-0.275,-9.974,-1.719
27.985193,-0.235,-9.987,-1.642
27.995063,-0.235,-9.935,-1.712
28.004933,-0.235,-9.935,-1.712
28.014803,-0.196,-10.012,-1.726
28.024673,-0.235,-10.046,-1.532
28.034543,-0.196,-9.974,-1.719
28.044413,-0.157,-9.935,-1.712
28.054283,-0.157,-10.001,-1.564
28.064153,-0.118,-9.98,-1.68
28.074023,-0.157,-9.967,-1.757
28.083893,-0.118,-9.914,-1.828
28.093763,-0.157,-9.974,-1.719
28.103633,-0.118,-9.974,-1.719
28.113503,-0.118,-10.005,-1.764
28.123373,-0.118,-10.026,-1.648
28.133243,-0.157,-9.974,-1.719
28.143123,-0.157,-9.935,-1.712
28.153003,-0.157,-9.928,-1.751
28.162883,-0.118,-9.914,-1.828
28.172763,-0.118,-9.967,-1.757
28.182643,-0.118,-9.921,-1.789
28.192523,-0.157,-9.935,-1.712
28.202403,-0.157,-9.889,-1.744
28.212283,-0.196,-9.928,-1.751
28.222163,-0.196,-9.896,-1.705
28.232043,-0.275,-9.903,-1.667
28.241923,-0.235,-9.91,-1.628
28.251803,-0.196,-9.974,-1.719
28.261683,-0.196,-10.001,-1.564
28.271609,-0.235,-9.946,-1.873
28.281535,-0.196,-9.928,-1.751
28.291461,-0.157,-9.928,-1.751
28.301387,-0.235,-9.96,-1.796
28.311313,-0.235,-9.935,-1.712
28.321239,-0.196,-9.942,-1.673
28.331165,-0.196,-9.949,-1.635
28.341091,-0.196,-9.98,-1.68
28.351017,-0.196,-9.98,-1.68
28.360943,-0.157,-9.928,-1.751
28.370869,-0.157,-9.942,-1.673
28.380795,-0.157,-9.935,-1.712
28.390721,-0.157,-9.935,-1.712
28.40067,-0.196,-9.921,-1.789
28.410619,-0.196,-9.928,-1.751
28.420568,-0.235,-9.921,-1.789
28.430517,-0.235,-9.967,-1.757
28.440466,-0.196,-9.914,-1.828
28.450415,-0.196,-9.946,-1.873
28.460364,-0.157,-9.908,-1.866
28.470313,-0.196,-9.921,-1.789
28.480262,-0.235,-9.921,-1.789
28.490211,-0.235,-9.96,-1.796
28.50016,-0.235,-9.96,-1.796
28.510109,-0.235,-9.914,-1.828
28.520058,-0.196,-9.96,-1.796
28.530033,-0.196,-9.96,-1.796
28.540008,-0.235,-9.921,-1.789
28.549983,-0.235,-9.928,-1.751
28.559958,-0.196,-9.908,-1.866
28.569933,-0.157,-9.862,-1.898
28.579908,-0.196,-9.914,-1.828
28.589883,-0.157,-9.946,-1.873
28.599858,-0.157,-9.992,-1.841
28.609833,-0.157,-9.974,-1.719
28.619808,-0.157,-9.978,-1.919
28.629783,-0.157,-9.985,-1.88
28.639758,-0.157,-10.005,-1.764
28.649733,-0.157,-9.939,-1.912
28.659689,-0.157,-9.919,-2.028
28.669645,-0.157,-9.928,-1.751
28.679601,-0.196,-9.914,-1.828
28.689557,-0.196,-9.883,-1.782
28.699513,-0.235,-9.837,-1.814
28.709469,-0.196,-9.844,-1.776
28.719425,-0.196,-9.928,-1.751
28.729381,-0.196,-9.946,-1.873
28.739337,-0.196,-9.921,-1.789
28.749293,-0.196,-9.908,-1.866
28.759249,-0.196,-9.985,-1.88
28.769205,-0.157,-9.999,-1.803
28.779161,-0.157,-10.024,-1.887
28.789117,-0.157,-9.999,-1.803
28.799073,-0.157,-9.985,-1.88
28.809017,-0.118,-9.999,-1.803
28.818961,-0.118,-9.985,-1.88
28.828905,-0.157,-9.985,-1.88
28.838849,-0.118,-9.974,-1.719
28.848793,-0.118,-9.999,-1.803
28.858737,-0.118,-9.953,-1.835
28.868681,-0.118,-9.908,-1.866
28.878625,-0.118,-9.921,-1.789
28.888569,-0.078,-9.862,-1.898
28.898513,-0.118,-9.894,-1.944
28.908457,-0.118,-9.869,-1.86
28.918401,-0.118,-9.876,-1.821
28.928346,-0.118,-9.876,-1.821
28.938291,-0.157,-9.946,-1.873
28.948236,-0.157,-9.912,-2.066
28.958181,-0.157,-9.985,-1.88
28.968126,-0.157,-9.985,-1.88
28.978071,-0.196,-9.946,-1.873
28.988016,-0.157,-9.933,-1.951
28.997961,-0.118,-9.926,-1.989
29.007906,-0.157,-9.933,-1.951
29.017851,-0.157,-9.901,-1.905
29.027796,-0.157,-9.835,-2.053
29.037741,-0.157,-9.894,-1.944
29.047686,-0.157,-9.951,-2.073
29.057636,-0.157,-10.012,-1.726
29.067586,-0.118,-9.926,-1.989
29.077536,-0.157,-9.874,-2.06
29.087486,-0.118,-9.964,-1.996
29.097436,-0.157,-9.951,-2.073
29.107386,-0.157,-9.951,-2.073
29.117336,-0.196,-10.003,-2.003
29.127286,-0.235,-9.989,-2.08
29.137236,-0.196,-9.951,-2.073
29.147186,-0.235,-9.964,-1.996
29.157136,-0.235,-9.926,-1.989
29.167086,-0.275,-9.84,-2.253
29.177036,-0.314,-9.878,-2.26
29.186991,-0.275,-9.833,-2.291
29.196946,-0.275,-9.79,-2.085
29.206901,-0.235,-9.724,-2.232
29.216856,-0.275,-9.603,-2.012
29.226811,-0.275,-9.64,-2.257
29.236766,-0.235,-9.758,-2.039
29.246721,-0.196,-9.846,-2.214
29.256676,-0.157,-9.853,-2.176
29.266631,-0.118,-9.86,-2.137
29.276586,-0.118,-9.962,-2.235
29.286541,-0.118,-9.939,-1.912
29.296496,-0.118,-9.944,-2.112
29.306451,-0.078,-9.996,-2.041
29.316406,-0.039,-9.862,-1.898
29.326366,-0.078,-9.821,-2.13
29.336326,0.0,-9.846,-2.214
29.346286,0.0,-9.919,-2.028
29.356246,0.039,-10.028,-2.087
29.366206,0.118,-10.028,-2.087
29.376166,0.157,-9.937,-2.151
29.386126,0.196,-9.84,-2.253
29.396086,0.275,-9.801,-2.246
29.406046,0.392,-9.755,-2.278
29.416006,0.431,-9.769,-2.201
29.425966,0.471,-9.755,-2.278
29.435926,0.549,-9.69,-2.426
29.445886,0.588,-9.721,-2.471
29.45585,0.588,-9.799,-2.485
29.465814,0.628,-9.858,-2.375
29.475778,0.628,-9.915,-2.505
29.485742,0.549,-9.871,-2.298
29.495706,0.51,-9.844,-2.453
29.50567,0.471,-9.737,-2.155
29.515634,0.392,-9.665,-2.341
29.525598,0.353,-9.671,-2.303
29.535562,0.275,-9.651,-2.419
29.545526,0.196,-9.651,-2.419
29.55549,0.196,-9.633,-2.296
29.565454,0.157,-9.619,-2.373
29.575418,0.118,-9.503,-2.353
29.585356,0.196,-9.528,-2.437
29.595294,0.157,-9.587,-2.328
29.605232,0.157,-9.626,-2.335
29.61517,0.196,-9.626,-2.335
29.625108,0.275,-9.587,-2.328
29.635046,0.314,-9.608,-2.212
29.644984,0.392,-9.646,-2.219
29.654922,0.431,-9.615,-2.173
29.66486,0.392,-9.576,-2.166
29.674798,0.431,-9.558,-2.044
29.684736,0.392,-9.494,-1.953
29.694674,0.353,-9.517,-1.598
29.704612,0.353,-9.637,-1.819
29.71455,0.196,-9.819,-1.692
29.724488,0.039,-10.258,-1.689
29.734422,-0.078,-10.444,-1.085
29.744356,-0.314,-10.512,-2.053
29.75429,-0.392,-10.276,-1.135
29.764224,-0.549,-10.414,-1.478
29.774158,-0.706,-10.289,-1.057
29.784092,-0.902,-10.223,-1.205
29.794026,-1.098,-10.164,-1.314
29.80396,-1.255,-10.089,-1.062
29.813894,-1.373,-10.078,-1.578
29.823828,-1.53,-9.987,-0.964
29.833762,-1.687,-10.046,-1.532
29.843696,-1.804,-9.948,-0.958
29.853634,-2.001,-9.937,-1.473
29.863572,-2.157,-9.883,-1.105
29.87351,-2.275,-9.96,-1.119
29.883448,-2.354,-9.823,-1.214
29.893386,-2.432,-9.828,-1.414
29.903324,-2.432,-9.68,-1.348
29.913262,-2.511,-9.674,-1.387
29.9232,-2.55,-9.462,-1.23
29.933138,-2.589,-9.401,-1.578
29.943076,-2.511,-9.274,-1.396
29.953014,-2.471,-9.251,-1.751
29.962952,-2.393,-9.187,-1.66
29.97289,-2.471,-9.203,-1.344
29.982841,-2.432,-9.203,-1.344
29.992792,-2.589,-9.149,-1.653
30.002743,-2.628,-9.208,-1.544
30.012694,-2.707,-9.265,-1.673
30.022645,-2.824,-9.38,-1.694
30.032596,-2.864,-9.428,-1.423
30.042547,-2.903,-9.421,-1.462
30.052498,-2.903,-9.435,-1.385
30.062449,-2.942,-9.435,-1.385
30.0724,-3.02,-9.417,-1.262
30.082351,-3.099,-9.346,-1.21
30.092302,-3.138,-9.494,-1.276
30.102253,-3.138,-9.567,-1.089
30.11222,-3.217,-9.496,-1.037
30.122187,-3.373,-9.589,-1.412
30.132154,-3.295,-9.671,-0.948
30.142121,-3.256,-9.869,-0.505
30.152088,-3.256,-9.992,-0.487
30.162055,-3.295,-10.087,-0.623
30.172022,-3.413,-10.055,-0.578
30.181989,-3.53,-9.867,-0.744
30.191956,-3.57,-9.803,-0.653
30.201923,-3.57,-9.778,-0.569
30.21189,-3.609,-9.673,-0.71
30.221857,-3.648,-9.701,-0.555
30.231824,-3.727,-9.726,-0.639
30.241791,-3.766,-9.764,-0.646
30.251753,-3.727,-9.705,-0.755
30.261715,-3.727,-9.642,-0.664
30.271677,-3.648,-9.498,-0.799
30.281639,-3.53,-9.435,-0.708
30.291601,-3.491,-9.389,-0.739
30.301563,-3.413,-9.33,-0.849
30.311525,-3.452,-9.33,-0.849
30.321487,-3.413,-9.439,-0.908
30.331449,-3.413,-9.408,-0.862
30.341411,-3.373,-9.376,-0.817
30.351373,-3.373,-9.394,-0.939
30.361335,-3.334,-9.324,-0.887
30.371297,-3.334,-9.369,-0.855
30.381256,-3.373,-9.453,-0.83
30.391215,-3.491,-9.401,-0.901
30.401174,-3.491,-9.569,-0.851
30.411133,-3.452,-9.608,-0.858
30.421092,-3.413,-9.646,-0.864
30.431051,-3.334,-9.462,-1.23
30.44101,-3.295,-9.374,-1.055
30.450969,-3.295,-9.328,-1.087
30.460928,-3.295,-9.289,-1.08
30.470887,-3.295,-9.296,-1.042
30.480846,-3.256,-9.269,-1.196
30.490805,-3.177,-9.192,-1.183
30.500764,-3.177,-9.16,-1.137
30.510723,-3.256,-9.205,-1.105
30.520659,-3.452,-9.205,-1.105
30.530595,-3.727,-9.199,-1.144
30.540531,-4.001,-8.84,-1.598
30.550467,-3.962,-8.767,-1.108
30.560403,-4.119,-9.044,-1.117
30.570339,-3.962,-8.999,-1.149
30.580275,-3.883,-9.101,-1.246
30.590211,-3.844,-9.358,-1.371
30.600147,-3.648,-9.485,-1.553
30.610083,-3.491,-9.571,-1.289
30.620019,-3.373,-9.603,-1.335
30.629955,-3.295,-9.526,-1.321
30.639891,-3.295,-9.505,-1.437
30.649827,-3.256,-9.337,-1.487
30.659735,-3.177,-9.358,-1.371
30.669643,-3.217,-9.31,-1.642
30.679551,-3.138,-9.049,-1.317
30.689459,-3.256,-9.156,-2.292
30.699367,-3.177,-9.19,-1.421
30.709275,-3.256,-8.996,-1.387
30.719183,-3.413,-9.065,-1.678
30.729091,-3.413,-9.151,-1.414
30.738999,-3.373,-9.105,-1.446
30.748907,-3.256,-8.992,-1.187
30.758815,-3.295,-8.84,-1.598
30.768723,-3.413,-8.842,-1.36
30.778631,-3.53,-8.883,-1.128
30.788539,-3.648,-9.183,-1.46
30.798426,-4.001,-9.494,-1.276
30.808313,-4.119,-9.555,-1.605
30.8182,-4.197,-9.499,-2.153
30.828087,-4.236,-9.658,-1.703
30.837974,-3.844,-9.38,-1.017
30.847861,-3.727,-9.285,-1.558
30.857748,-3.491,-9.087,-2.001
30.867635,-3.256,-9.153,-1.176
30.877522,-3.217,-9.333,-1.287
30.887409,-3.295,-9.221,-1.467
30.897296,-3.334,-9.187,-1.66
30.907183,-3.256,-9.124,-1.569
30.91707,-3.177,-8.871,-1.644
30.926963,-3.177,-8.906,-2.128
30.936856,-3.138,-9.094,-1.962
30.946749,-3.256,-9.16,-1.814
30.956642,-3.413,-9.135,-1.73
30.966535,-3.452,-9.135,-1.73
30.976428,-3.413,-9.246,-1.551
30.986321,-3.452,-9.351,-1.41
30.996214,-3.452,-9.23,-1.867
31.006107,-3.373,-9.149,-1.653
31.016,-3.373,-9.215,-1.505
31.025893,-3.452,-9.18,-1.698
31.035786,-3.648,-9.196,-1.383
31.045679,-3.883,-9.267,-1.435
31.055545,-3.962,-9.169,-1.537
31.065411,-3.923,-9.058,-1.717
31.075277,-4.04,-9.219,-1.705
31.085143,-3.883,-9.321,-1.803
31.095009,-3.648,-9.303,-1.68
31.104875,-3.334,-9.226,-1.667
31.114741,-3.177,-9.337,-1.487
31.124607,-3.138,-9.405,-1.778
31.134473,-3.177,-9.333,-1.287
31.144339,-3.334,-9.274,-2.073
31.154205,-3.334,-9.317,-1.603
31.164071,-3.256,-9.355,-1.61
31.173937,-3.256,-9.151,-2.092
31.183803,-3.256,-9.006,-1.787
31.193651,-3.295,-9.126,-2.007
31.203499,-3.334,-9.33,-1.526
31.213347,-3.373,-9.165,-1.337
31.223195,-3.491,-9.351,-2.087
31.233043,-3.373,-9.426,-1.662
31.242891,-3.295,-9.167,-1.776
31.252739,-3.138,-9.083,-1.801
31.262587,-3.217,-9.233,-1.628
31.272435,-3.373,-9.33,-1.526
31.282283,-3.648,-9.376,-1.494
31.292131,-3.883,-9.342,-1.687
31.301979,-4.315,-9.478,-1.592
31.311827,-4.158,-9.249,-1.989
31.32169,-4.158,-9.265,-1.673
31.331553,-4.08,-9.167,-1.776
31.341416,-3.883,-9.051,-1.755
31.351279,-3.687,-8.987,-1.664
31.361142,-3.57,-8.983,-1.464
31.371005,-3.53,-9.185,-1.898
31.380868,-3.413,-9.271,-1.635
31.390731,-3.452,-9.303,-1.68
31.400594,-3.295,-9.217,-1.944
31.410457,-3.099,-9.16,-1.814
31.42032,-2.981,-9.217,-1.944
31.430183,-2.864,-9.199,-1.821
31.440046,-2.864,-9.158,-2.053
31.449929,-2.942,-9.174,-1.737
31.459812,-2.981,-9.34,-1.926
31.469695,-2.942,-9.396,-1.378
31.479578,-3.02,-9.294,-1.957
31.489461,-3.217,-9.16,-1.814
31.499344,-3.413,-9.167,-1.776
31.509227,-3.452,-9.301,-1.919
31.51911,-3.295,-9.392,-1.855
31.528993,-3.256,-9.121,-1.808
31.538876,-3.256,-9.044,-1.794
31.548759,-3.295,-9.103,-1.685
31.558642,-3.373,-9.18,-1.698
31.568525,-3.413,-9.342,-1.687
31.578422,-3.413,-9.226,-1.667
31.588319,-3.53,-9.16,-1.814
31.598216,-3.452,-9.394,-1.617
31.608113,-3.491,-9.251,-1.751
31.61801,-3.491,-9.167,-1.776
31.627907,-3.491,-9.31,-1.642
31.637804,-3.57,-9.44,-1.585
31.647701,-3.687,-9.478,-1.592
31.657598,-3.727,-9.503,-1.676
31.667495,-3.687,-9.471,-1.63
31.677392,-3.648,-9.369,-1.533
31.687289,-3.491,-9.117,-1.608
31.697186,-3.452,-9.121,-1.808
31.707083,-3.373,-9.208,-1.544
31.716978,-3.334,-9.128,-1.769
31.726873,-3.334,-9.237,-1.828
31.736768,-3.295,-9.33,-1.526
31.746663,-3.295,-9.265,-1.673
31.756558,-3.256,-9.212,-1.744
31.766453,-3.138,-9.276,-1.835
31.776348,-3.217,-9.449,-1.308
31.786243,-3.334,-9.405,-1.778
31.796138,-3.609,-9.383,-1.455
31.806033,-3.727,-9.38,-1.694
31.815928,-3.844,-9.362,-1.571
31.825823,-3.805,-9.333,-1.964
31.835718,-3.727,-9.292,-1.519
31.845621,-3.57,-9.228,-1.428
31.855524,-3.413,-9.283,-1.796
31.865427,-3.373,-9.471,-1.63
31.87533,-3.413,-9.555,-1.605
31.885233,-3.491,-9.419,-1.701
31.895136,-3.53,-9.276,-1.835
31.905039,-3.491,-9.255,-1.951
31.914942,-3.491,-9.392,-1.855
31.924845,-3.53,-9.224,-1.905
31.934748,-3.53,-9.108,-1.885
31.944651,-3.452,-9.11,-1.646
31.954554,-3.452,-9.11,-1.646
31.964457,-3.491,-9.128,-1.769
31.974377,-3.452,-9.199,-1.821
31.984297,-3.413,-9.194,-1.621
31.994217,-3.295,-9.18,-1.698
32.004137,-3.177,-9.174,-1.737
32.014057,-3.217,-9.278,-1.596
32.023977,-3.373,-9.31,-1.642
32.033897,-3.53,-9.308,-1.88
32.043817,-3.687,-9.328,-1.764
32.053737,-3.766,-9.328,-1.764
32.063657,-3.844,-9.33,-1.526
32.073577,-3.766,-9.237,-1.828
32.083497,-3.648,-9.296,-1.719
32.093417,-3.452,-9.367,-1.771
32.103381,-3.334,-9.53,-1.521
32.113345,-3.295,-9.653,-1.503
32.123309,-3.413,-9.762,-1.562
32.133273,-3.413,-9.696,-1.71
32.143237,-3.334,-9.696,-1.71
32.153201,-3.256,-9.553,-1.844
32.163165,-3.256,-9.405,-1.778
32.173129,-3.295,-9.296,-1.719
32.183093,-3.217,-9.33,-1.526
32.193057,-3.138,-9.453,-1.508
32.203021,-3.138,-9.592,-1.173
32.212985,-3.217,-9.687,-1.31
32.222949,-3.452,-9.63,-1.18
32.232923,-3.727,-9.564,-1.328
32.242897,-3.883,-9.476,-1.153
32.252871,-3.883,-9.521,-1.121
32.262845,-3.766,-9.458,-1.03
32.272819,-3.766,-9.546,-1.205
32.282793,-3.766,-9.578,-1.251
32.292767,-3.727,-9.539,-1.244
32.302741,-3.766,-9.526,-1.321
32.312715,-3.687,-9.564,-1.328
32.322689,-3.687,-9.528,-1.76
32.332663,-3.727,-9.585,-1.889
32.342637,-3.727,-9.603,-2.012
32.352611,-3.609,-9.46,-2.146
32.362585,-3.491,-9.433,-2.301
32.372562,-3.373,-9.342,-2.364
32.382539,-3.256,-9.237,-2.505
32.392516,-3.099,-9.197,-2.737
32.402493,-3.02,-9.081,-2.716
32.41247,-2.981,-8.963,-2.935
32.422447,-2.903,-8.988,-3.019
32.432424,-2.824,-9.044,-3.148
32.442401,-2.785,-9.069,-3.232
32.452378,-2.707,-9.01,-3.341
32.462355,-2.628,-9.113,-3.439
32.472332,-2.511,-8.997,-3.419
32.482309,-2.432,-8.913,-3.444
32.492286,-2.314,-8.763,-3.616
32.502272,-2.236,-8.635,-3.435
32.512258,-2.118,-8.497,-3.769
32.522244,-2.04,-8.556,-3.66
32.53223,-1.922,-8.658,-3.757
32.542216,-1.844,-8.742,-3.732
32.552202,-1.804,-8.86,-3.514
32.562188,-1.765,-8.808,-3.585
32.572174,-1.765,-8.808,-3.585
32.58216,-1.765,-8.976,-3.535
32.592146,-1.726,-9.053,-3.548
32.602132,-1.765,-9.085,-3.594
32.612118,-1.804,-9.047,-3.587
32.622104,-1.844,-8.931,-3.566
32.63211,-1.922,-8.938,-3.528
32.642116,-1.961,-8.938,-3.528
32.652122,-1.922,-8.99,-3.457
32.662128,-1.961,-9.035,-3.425
32.672134,-2.04,-8.967,-3.135
32.68214,-2.118,-9.006,-3.141
32.692146,-2.236,-9.115,-3.2
32.702152,-2.393,-9.34,-3.28
32.712158,-2.511,-9.476,-3.184
32.722164,-2.589,-9.535,-3.075
32.73217,-2.628,-9.481,-2.707
32.742176,-2.707,-9.34,-2.603
32.752182,-2.785,-9.319,-2.719
32.762184,-2.824,-9.406,-2.455
32.772186,-2.903,-9.431,-2.539
32.782188,-2.942,-9.424,-2.578
32.79219,-2.942,-9.41,-2.655
32.802192,-2.864,-9.458,-2.385
32.812194,-2.824,-9.467,-2.785
32.822196,-2.746,-9.608,-2.889
32.832198,-2.707,-9.665,-3.019
32.8422,-2.707,-9.587,-3.005
32.852202,-2.628,-9.59,-2.766
32.862204,-2.55,-9.665,-3.019
32.872206,-2.432,-9.621,-2.812
32.882208,-2.354,-9.599,-3.166
32.89221,-2.314,-9.524,-2.914
32.902193,-2.275,-9.542,-3.037
32.912176,-2.118,-9.517,-2.953
32.922159,-2.079,-9.574,-3.082
32.932142,-2.001,-9.574,-3.082
32.942125,-1.922,-9.537,-2.837
32.952108,-1.844,-9.49,-3.107
32.962091,-1.687,-9.472,-2.985
32.972074,-1.569,-9.408,-2.894
32.982057,-1.569,-9.387,-3.01
32.99204,-1.491,-9.299,-2.835
33.002023,-1.412,-9.181,-3.053
33.012006,-1.294,-8.988,-3.019
33.021989,-1.255,-8.988,-3.019
33.031965,-1.177,-9.151,-2.769
33.041941,-1.098,-9.394,-2.971
33.051917,-0.981,-9.542,-3.037
33.061893,-0.902,-9.587,-3.005
33.071869,-0.824,-9.562,-2.921
33.081845,-0.785,-9.492,-2.869
33.091821,-0.745,-9.453,-2.862
33.101797,-0.785,-9.478,-2.946
33.111773,-0.745,-9.581,-3.044
33.121749,-0.785,-9.749,-2.994
33.131725,-0.863,-9.896,-3.059
33.141701,-0.863,-9.969,-2.873
33.151677,-0.902,-9.969,-2.873
33.161657,-1.02,-9.808,-2.885
33.171637,-1.138,-9.731,-2.871
33.181617,-1.216,-9.717,-2.948
33.191597,-1.255,-9.762,-2.916
33.201577,-1.294,-9.756,-2.955
33.211557,-1.373,-9.646,-2.896
33.221537,-1.412,-9.608,-2.889
33.231517,-1.451,-9.574,-3.082
33.241497,-1.451,-9.669,-3.219
33.251477,-1.491,-9.671,-2.98
33.261457,-1.53,-9.603,-2.689
33.271437,-1.608,-9.424,-2.578
33.281417,-1.726,-9.301,-2.596
33.291397,-1.726,-9.267,-2.789
33.301383,-1.687,-9.267,-2.789
33.311369,-1.687,-9.215,-2.86
33.321355,-1.687,-9.258,-3.066
33.331341,-1.687,-9.451,-3.1
33.341327,-1.608,-9.676,-3.18
33.351313,-1.608,-9.742,-3.032
33.361299,-1.608,-9.71,-2.987
33.371285,-1.53,-9.59,-2.766
33.381271,-1.451,-9.456,-2.623
33.391257,-1.451,-9.417,-2.616
33.401243,-1.451,-9.449,-2.662
33.411229,-1.412,-9.449,-2.662
33.421177,-1.294,-9.583,-2.805
33.431125,-1.216,-9.712,-2.748
33.441073,-1.138,-9.79,-2.762
33.451021,-1.138,-9.776,-2.839
33.460969,-1.138,-9.776,-2.839
33.470917,-1.02,-9.828,-2.769
33.480865,-0.941,-9.771,-2.639
33.490813,-0.902,-9.508,-2.553
33.500761,-0.824,-9.385,-2.571
33.510709,-0.785,-9.392,-2.532
33.520657,-0.745,-9.419,-2.378
33.530605,-0.745,-9.565,-2.682
33.540553,-0.667,-9.594,-2.289
33.550501,-0.706,-9.612,-2.412
33.560432,-0.745,-9.687,-2.664
33.570363,-0.706,-9.767,-2.439
33.580294,-0.706,-9.649,-1.98
33.590225,-0.706,-9.569,-2.205
33.600156,-0.785,-9.735,-2.394
33.610087,-0.824,-9.833,-2.291
33.620018,-0.902,-9.962,-2.235
33.629949,-0.941,-9.994,-2.28
33.63988,-1.02,-10.065,-2.332
33.649811,-1.059,-10.212,-2.398
33.659742,-1.138,-10.251,-2.405
33.669673,-1.216,-10.483,-2.446
33.679604,-1.216,-10.18,-2.353
33.689501,-1.216,-9.892,-2.182
33.699398,-1.177,-9.571,-1.967
33.709295,-1.138,-9.885,-2.898
33.719192,-1.138,-9.978,-1.919
33.729089,-1.177,-9.576,-2.166
33.738986,-1.138,-9.553,-2.521
33.748883,-1.059,-9.594,-2.289
33.75878,-1.02,-9.544,-2.121
33.768677,-0.941,-9.549,-2.321
33.778574,-0.941,-9.617,-2.612
33.788471,-0.902,-9.749,-2.316
33.798368,-0.824,-9.762,-2.239
33.808265,-0.863,-9.826,-2.33
33.818162,-0.824,-9.91,-2.305
33.828066,-0.824,-9.969,-2.196
33.83797,-0.824,-9.91,-2.305
33.847874,-0.824,-9.892,-2.182
33.857778,-0.902,-9.828,-2.091
33.867682,-0.902,-9.762,-2.239
33.877586,-0.902,-9.776,-2.162
33.88749,-0.902,-9.815,-2.169
33.897394,-0.902,-9.828,-2.091
33.907298,-0.902,-9.801,-2.246
33.917202,-0.902,-9.821,-2.13
33.927106,-0.902,-9.878,-2.26
33.93701,-0.902,-9.935,-2.389
33.946914,-0.902,-10.069,-2.532
33.956824,-0.863,-10.301,-1.896
33.966734,-0.785,-9.985,-1.88
33.976644,-0.745,-9.542,-1.682
33.986554,-0.745,-9.353,-1.848
33.996464,-0.785,-9.551,-2.082
34.006374,-0.824,-9.685,-2.226
34.016284,-0.902,-9.71,-2.31
34.026194,-0.941,-9.762,-2.239
34.036104,-0.941,-9.744,-2.116
34.046014,-0.863,-9.762,-2.239
34.055924,-0.902,-9.821,-2.13
34.065834,-0.941,-9.867,-2.098
34.075744,-0.941,-9.86,-2.137
34.085638,-0.981,-9.86,-2.137
34.095532,-0.981,-9.944,-2.112
34.105426,-1.02,-10.035,-2.048
34.11532,-1.02,-9.976,-2.157
34.125214,-1.02,-9.989,-2.08
34.135108,-1.02,-9.971,-1.957
34.145002,-0.981,-9.985,-1.88
34.154896,-1.059,-9.88,-2.021
34.16479,-1.098,-9.912,-2.066
34.174684,-1.059,-10.028,-2.087
34.184578,-1.059,-9.985,-1.88
34.194472,-1.098,-9.869,-1.86
34.204366,-1.059,-9.926,-1.989
34.21426,-1.059,-10.028,-2.087
34.224154,-1.059,-9.96,-1.796
34.234043,-1.059,-9.842,-2.014
34.243932,-1.098,-9.803,-2.007
34.253821,-1.098,-9.712,-2.071
34.26371,-1.059,-9.68,-2.026
34.273599,-1.02,-9.733,-1.955
34.283488,-1.02,-9.746,-1.878
34.293377,-1.059,-9.783,-2.123
34.303266,-1.059,-9.821,-2.13
34.313155,-1.098,-9.917,-2.266
34.323044,-1.02,-9.944,-2.112
34.332933,-1.02,-9.926,-1.989
34.342822,-1.02,-9.855,-1.937
34.352711,-1.02,-9.88,-2.021
34.362616,-1.059,-9.919,-2.028
34.372521,-1.02,-9.939,-1.912
34.382426,-1.098,-9.815,-2.169
34.392331,-1.02,-9.737,-2.155
34.402236,-1.059,-9.776,-2.162
34.412141,-1.02,-9.778,-1.923
34.422046,-1.059,-9.787,-2.323
34.431951,-1.098,-9.885,-2.221
34.441856,-1.098,-9.91,-2.305
34.451761,-1.138,-9.962,-2.235
34.461666,-1.138,-9.892,-2.182
34.471571,-1.138,-9.867,-2.098
34.481476,-1.177,-9.803,-2.007
34.491358,-1.177,-9.769,-2.201
34.50124,-1.255,-9.762,-2.239
34.511122,-1.334,-9.84,-2.253
34.521004,-1.334,-9.905,-2.105
34.530886,-1.334,-9.846,-2.214
34.540768,-1.373,-9.796,-2.046
34.55065,-1.412,-9.769,-2.201
34.560532,-1.412,-9.84,-2.253
34.570414,-1.373,-9.758,-2.039
34.580296,-1.373,-9.653,-2.18
34.590178,-1.412,-9.678,-2.264
34.60006,-1.412,-9.73,-2.194
34.609942,-1.412,-9.692,-2.187
34.619824,-1.334,-9.699,-2.148
34.629706,-1.334,-9.717,-2.271
34.63959,-1.294,-9.71,-2.31
34.649474,-1.255,-9.769,-2.201
34.659358,-1.255,-9.769,-2.201
34.669242,-1.177,-9.769,-2.201
34.679126,-1.177,-9.769,-2.201
34.68901,-1.177,-9.794,-2.285
34.698894,-1.098,-9.808,-2.207
34.708778,-1.059,-9.808,-2.207
34.718662,-0.981,-9.794,-2.285
34.728546,-0.941,-9.878,-2.26
34.73843,-0.863,-9.846,-2.214
34.748314,-0.824,-9.794,-2.285
34.758198,-0.745,-9.801,-2.246
34.768093,-0.706,-9.749,-2.316
34.777988,-0.706,-9.76,-2.478
34.787883,-0.667,-9.801,-2.246
34.797778,-0.628,-9.885,-2.221
34.807673,-0.588,-9.812,-2.407
34.817568,-0.549,-9.858,-2.375
34.827463,-0.51,-9.833,-2.291
34.837358,-0.51,-9.871,-2.298
34.847253,-0.51,-9.787,-2.323
34.857148,-0.471,-9.787,-2.323
34.867043,-0.471,-9.742,-2.355
34.876938,-0.431,-9.717,-2.271
34.886833,-0.431,-9.774,-2.4
34.896739,-0.431,-9.774,-2.4
34.906645,-0.471,-9.76,-2.478
34.916551,-0.51,-9.78,-2.362
34.926457,-0.471,-9.812,-2.407
34.936363,-0.471,-9.851,-2.414
34.946269,-0.51,-9.792,-2.523
34.956175,-0.549,-9.812,-2.407
34.966081,-0.588,-9.812,-2.407
34.975987,-0.588,-9.799,-2.485
34.985893,-0.667,-9.812,-2.407
34.995799,-0.628,-9.792,-2.523
35.005705,-0.667,-9.805,-2.446
35.015611,-0.706,-9.774,-2.4
35.025517,-0.745,-9.767,-2.439
35.035439,-0.785,-9.721,-2.471
35.045361,-0.824,-9.76,-2.478
35.055283,-0.785,-9.792,-2.523
35.065205,-0.745,-9.774,-2.4
35.075127,-0.785,-9.774,-2.4
35.085049,-0.785,-9.787,-2.323
35.094971,-0.863,-9.728,-2.432
35.104893,-0.824,-9.728,-2.432
35.114815,-0.824,-9.767,-2.439
35.124737,-0.785,-9.728,-2.432
35.134659,-0.745,-9.721,-2.471
35.144581,-0.706,-9.728,-2.432
35.154503,-0.667,-9.799,-2.485
35.164447,-0.667,-9.792,-2.523
35.174391,-0.628,-9.774,-2.4
35.184335,-0.549,-9.774,-2.4
35.194279,-0.549,-9.767,-2.439
35.204223,-0.51,-9.76,-2.478
35.214167,-0.471,-9.78,-2.362
35.224111,-0.471,-9.728,-2.432
35.234055,-0.431,-9.735,-2.394
35.243999,-0.353,-9.767,-2.439
35.253943,-0.353,-9.805,-2.446
35.263887,-0.392,-9.799,-2.485
35.273831,-0.392,-9.799,-2.485
35.283775,-0.471,-9.799,-2.485
35.293744,-0.51,-9.753,-2.516
35.303713,-0.51,-9.735,-2.394
35.313682,-0.51,-9.669,-2.541
35.323651,-0.51,-9.69,-2.426
35.33362,-0.471,-9.71,-2.31
35.343589,-0.471,-9.683,-2.464
35.353558,-0.392,-9.651,-2.419
35.363527,-0.353,-9.651,-2.419
35.373496,-0.275,-9.658,-2.38
35.383465,-0.196,-9.696,-2.387
35.393434,-0.078,-9.787,-2.323
35.403403,-0.078,-9.767,-2.439
35.413372,0.0,-9.805,-2.446
35.423343,0.118,-9.858,-2.375
35.433314,0.157,-9.892,-2.182
35.443285,0.118,-9.826,-2.33
35.453256,0.157,-9.896,-2.382
35.463227,0.157,-9.942,-2.35
35.473198,0.196,-10.014,-2.164
35.483169,0.235,-9.712,-2.071
35.49314,0.196,-9.583,-2.128
35.503111,0.157,-9.755,-2.278
35.513082,0.157,-9.976,-2.157
35.523053,0.078,-10.001,-2.241
35.533024,0.078,-10.008,-2.203
35.542995,0.078,-9.905,-2.105
35.552966,0.078,-9.912,-2.066
35.562946,0.039,-9.885,-2.221
35.572926,0.0,-9.949,-2.312
35.582906,-0.039,-10.026,-2.325
35.592886,0.0,-10.071,-2.294
35.602866,0.0,-10.074,-2.055
35.612846,0.0,-9.978,-1.919
35.622826,-0.039,-9.867,-2.098
35.632806,-0.078,-9.867,-2.098
35.642786,-0.039,-9.821,-2.13
35.652766,-0.039,-9.733,-1.955
35.662746,-0.039,-9.66,-2.141
35.672726,-0.039,-9.737,-2.155
35.682706,0.0,-9.73,-2.194
35.692691,0.039,-9.835,-2.053
35.702676,0.039,-9.86,-2.137
35.712661,0.039,-9.808,-2.207
35.722646,0.039,-9.815,-2.169
35.732631,0.039,-9.84,-2.253
35.742616,0.0,-9.942,-2.35
35.752601,0.0,-10.078,-2.255
35.762586,0.0,-10.117,-2.262
35.772571,0.0,-10.158,-2.03
35.782556,0.0,-10.035,-2.048
35.792541,0.0,-9.951,-2.073
35.802526,0.0,-9.874,-2.06
35.812511,0.0,-9.933,-1.951
35.822504,-0.039,-9.733,-1.955
35.832497,-0.039,-9.849,-1.976
35.84249,-0.039,-9.905,-2.105
35.852483,-0.078,-10.017,-1.926
35.862476,-0.118,-10.012,-1.726
35.872469,-0.118,-10.01,-1.964
35.882462,-0.118,-10.024,-1.887
35.892455,-0.196,-9.976,-2.157
35.902448,-0.196,-10.008,-2.203
35.912441,-0.196,-10.021,-2.126
35.922434,-0.196,-10.087,-1.978
35.932427,-0.157,-10.01,-1.964
35.94242,-0.157,-9.951,-2.073
35.952398,-0.157,-9.992,-1.841
35.962376,-0.157,-10.012,-1.726
35.972354,-0.196,-9.908,-1.866
35.982332,-0.196,-9.896,-1.705
35.99231,-0.157,-9.844,-1.776
36.002288,-0.157,-9.935,-1.712
36.012266,-0.157,-9.971,-1.957
36.022244,-0.157,-9.746,-1.878
36.032222,-0.157,-9.824,-1.891
36.0422,-0.157,-9.785,-1.885
36.052178,-0.118,-9.844,-1.776
36.062156,-0.078,-9.817,-1.93
36.072134,-0.078,-9.785,-1.885
36.082112,-0.078,-9.767,-1.762
36.092056,-0.039,-9.817,-1.93
36.102,-0.039,-9.901,-1.905
36.111944,-0.039,-9.933,-1.951
36.121888,0.0,-9.971,-1.957
36.131832,-0.039,-9.951,-2.073
36.141776,-0.039,-9.951,-2.073
36.15172,-0.039,-9.989,-2.08
36.161664,-0.039,-10.028,-2.087
36.171608,-0.078,-10.105,-2.101
36.181552,-0.078,-10.158,-2.03
36.191496,-0.078,-10.164,-1.991
36.20144,-0.078,-10.158,-2.03
36.211384,-0.039,-10.164,-1.991
36.2213,0.0,-10.114,-1.823
36.231216,-0.078,-10.044,-1.771
36.241132,-0.039,-9.96,-1.796
36.251048,-0.078,-9.91,-1.628
36.260964,-0.118,-9.851,-1.737
36.27088,-0.118,-9.801,-1.569
36.280796,-0.118,-9.755,-1.601
36.290712,-0.118,-9.651,-1.742
36.300628,-0.118,-9.651,-1.742
36.310544,-0.118,-9.689,-1.748
36.32046,-0.118,-9.724,-1.555
36.330376,-0.118,-9.755,-1.601
36.340292,-0.078,-9.749,-1.639
36.35022,-0.118,-9.742,-1.678
36.360148,-0.078,-9.735,-1.717
36.370076,-0.078,-9.792,-1.846
36.380004,-0.078,-9.901,-1.905
36.389932,-0.118,-9.946,-1.873
36.39986,-0.118,-9.978,-1.919
36.409788,-0.118,-10.069,-1.855
36.419716,-0.118,-10.069,-1.855
36.429644,-0.118,-10.101,-1.901
36.439572,-0.157,-10.087,-1.978
36.4495,-0.078,-10.08,-2.016
36.459428,-0.078,-10.076,-1.816
36.469356,-0.078,-10.024,-1.887
36.479284,-0.157,-10.017,-1.926
36.48918,-0.157,-9.939,-1.912
36.499076,-0.157,-9.946,-1.873
36.508972,-0.157,-9.842,-2.014
36.518868,-0.118,-9.914,-1.828
36.528764,-0.078,-9.835,-2.053
36.53866,-0.078,-9.894,-1.944
36.548556,-0.118,-9.914,-1.828
36.558452,-0.118,-9.926,-1.989
36.568348,-0.078,-9.933,-1.951
36.578244,-0.078,-9.971,-1.957
36.58814,-0.078,-9.953,-1.835
36.598036,-0.039,-9.883,-1.782
36.607932,-0.078,-9.869,-1.86
36.617807,-0.078,-9.919,-2.028
36.627682,-0.118,-9.964,-1.996
36.637557,-0.078,-9.996,-2.041
36.647432,-0.078,-9.926,-1.989
36.657307,-0.078,-9.958,-2.035
36.667182,-0.078,-9.978,-1.919
36.677057,-0.118,-9.887,-1.982
36.686932,-0.118,-9.912,-2.066
36.696807,-0.118,-9.919,-2.028
36.706682,-0.118,-9.874,-2.06
36.716557,-0.118,-9.894,-1.944
36.726432,-0.157,-9.874,-2.06
36.736307,-0.157,-9.874,-2.06
36.746172,-0.157,-9.901,-1.905
36.756037,-0.118,-9.862,-1.898
36.765902,-0.118,-9.796,-2.046
36.775767,-0.118,-9.849,-1.976
36.785632,-0.118,-9.828,-2.091
36.795497,-0.118,-9.867,-2.098
36.805362,-0.118,-9.88,-2.021
36.815227,-0.118,-9.912,-2.066
36.825092,-0.118,-9.978,-1.919
36.834957,-0.078,-10.003,-2.003
36.844822,-0.039,-10.003,-2.003
36.854687,-0.039,-9.989,-2.08
36.864552,0.0,-9.978,-1.919
36.874424,0.0,-9.919,-2.028
36.884296,0.0,-9.88,-2.021
36.894168,0.039,-9.933,-1.951
36.90404,0.0,-9.905,-2.105
36.913912,0.039,-9.905,-2.105
36.923784,0.078,-9.867,-2.098
36.933656,0.078,-9.899,-2.144
36.943528,0.078,-9.951,-2.073
36.9534,0.039,-9.919,-2.028
36.963272,0.039,-9.919,-2.028
36.973144,0.039,-9.912,-2.066
36.983016,0.0,-9.905,-2.105
36.992888,-0.039,-9.905,-2.105
37.002751,-0.118,-9.887,-1.982
37.012614,-0.157,-9.874,-2.06
37.022477,-0.157,-9.846,-2.214
37.03234,-0.196,-9.86,-2.137
37.042203,-0.196,-9.84,-2.253
37.052066,-0.196,-9.937,-2.151
37.061929,-0.235,-9.926,-1.989
37.071792,-0.275,-9.899,-2.144
37.081655,-0.314,-9.874,-2.06
37.091518,-0.314,-9.867,-2.098
37.101381,-0.353,-9.892,-2.182
37.111244,-0.314,-9.944,-2.112
37.121107,-0.353,-9.878,-2.26
37.13097,-0.314,-9.917,-2.266
37.140833,-0.314,-9.917,-2.266
37.150683,-0.353,-9.883,-2.46
37.160533,-0.353,-9.865,-2.337
37.170383,-0.392,-9.899,-2.144
37.180233,-0.392,-9.885,-2.221
37.190083,-0.392,-9.885,-2.221
37.199933,-0.431,-9.885,-2.221
37.209783,-0.431,-9.846,-2.214
37.219633,-0.392,-9.865,-2.337
37.229483,-0.392,-9.878,-2.26
37.239333,-0.471,-9.878,-2.26
37.249183,-0.431,-9.851,-2.414
37.259033,-0.431,-9.865,-2.337
37.268883,-0.392,-9.851,-2.414
37.278748,-0.353,-9.851,-2.414
37.288613,-0.314,-9.896,-2.382
37.298478,-0.353,-9.921,-2.466
37.308343,-0.314,-9.869,-2.537
37.318208,-0.314,-9.896,-2.382
37.328073,-0.314,-9.862,-2.575
37.337938,-0.275,-9.869,-2.537
37.347803,-0.275,-9.851,-2.414
37.357668,-0.314,-9.805,-2.446
37.367533,-0.275,-9.742,-2.355
37.377398,-0.235,-9.665,-2.341
37.387263,-0.196,-9.637,-2.496
37.397128,-0.196,-9.619,-2.373
37.406993,-0.196,-9.587,-2.328
37.41689,-0.196,-9.576,-2.166
37.426787,-0.196,-9.606,-2.451
37.436684,-0.196,-9.585,-2.566
37.446581,-0.157,-9.606,-2.451
37.456478,-0.157,-9.644,-2.457
37.466375,-0.196,-9.612,-2.412
37.476272,-0.196,-9.669,-2.541
37.486169,-0.235,-9.746,-2.555
37.496066,-0.235,-9.824,-2.569
37.505963,-0.275,-9.817,-2.607
37.51586,-0.235,-9.901,-2.582
37.525757,-0.196,-9.824,-2.569
37.535654,-0.275,-9.796,-2.723
37.545588,-0.275,-9.79,-2.762
37.555522,-0.275,-9.79,-2.762
37.565456,-0.275,-9.771,-2.639
37.57539,-0.235,-9.803,-2.685
37.585324,-0.275,-9.733,-2.632
37.595258,-0.275,-9.726,-2.671
37.605192,-0.275,-9.726,-2.671
37.615126,-0.275,-9.758,-2.716
37.62506,-0.196,-9.79,-2.762
37.634994,-0.235,-9.771,-2.639
37.644928,-0.235,-9.719,-2.71
37.654862,-0.275,-9.712,-2.748
37.664796,-0.235,-9.681,-2.703
37.674744,-0.235,-9.667,-2.78
37.684692,-0.275,-9.708,-2.548
37.69464,-0.275,-9.681,-2.703
37.704588,-0.275,-9.719,-2.71
37.714536,-0.275,-9.681,-2.703
37.724484,-0.235,-9.74,-2.594
37.734432,-0.314,-9.74,-2.594
37.74438,-0.275,-9.719,-2.71
37.754328,-0.314,-9.719,-2.71
37.764276,-0.314,-9.771,-2.639
37.774224,-0.353,-9.765,-2.678
37.784172,-0.353,-9.706,-2.787
37.79412,-0.392,-9.746,-2.555
37.804068,-0.392,-9.758,-2.716
37.814016,-0.392,-9.758,-2.716
37.823975,-0.392,-9.724,-2.91
37.833934,-0.353,-9.771,-2.639
37.843893,-0.314,-9.765,-2.678
37.853852,-0.314,-9.79,-2.762
37.863811,-0.314,-9.744,-2.794
37.87377,-0.353,-9.712,-2.748
37.883729,-0.353,-9.712,-2.748
37.893688,-0.275,-9.751,-2.755
37.903647,-0.275,-9.583,-2.805
37.913606,-0.314,-9.699,-2.825
37.923565,-0.275,-9.712,-2.748
37.933524,-0.235,-9.712,-2.748
37.943483,-0.235,-9.719,-2.71
37.953477,-0.196,-9.726,-2.671
37.963471,-0.196,-9.699,-2.825
37.973465,-0.196,-9.685,-2.903
37.983459,-0.196,-9.751,-2.755
37.993453,-0.196,-9.706,-2.787
38.003447,-0.235,-9.699,-2.825
38.013441,-0.196,-9.692,-2.864
38.023435,-0.196,-9.706,-2.787
38.033429,-0.196,-9.706,-2.787
38.043423,-0.235,-9.712,-2.748
38.053417,-0.275,-9.699,-2.825
38.063411,-0.275,-9.737,-2.832
38.073405,-0.314,-9.685,-2.903
38.083399,-0.275,-9.712,-2.748
38.093393,-0.275,-9.706,-2.787
38.103387,-0.314,-9.769,-2.878
38.113381,-0.314,-9.846,-2.891
38.123375,-0.314,-9.853,-2.853
38.133369,-0.314,-9.821,-2.807
38.143363,-0.275,-9.796,-2.723
38.153357,-0.275,-9.674,-2.741
38.163351,-0.314,-9.678,-2.941
38.173345,-0.392,-9.785,-2.562
38.183339,-0.431,-9.708,-2.548
38.193333,-0.471,-9.553,-2.521
38.203327,-0.471,-9.469,-2.546
38.213321,-0.471,-9.481,-2.707
38.22331,-0.471,-9.515,-2.514
38.233299,-0.471,-9.394,-2.294
38.243288,-0.431,-9.399,-2.494
38.253277,-0.392,-9.603,-2.689
38.263266,-0.392,-9.83,-2.53
38.273255,-0.353,-9.876,-2.498
38.283244,-0.353,-9.928,-2.428
38.293233,-0.275,-9.953,-2.512
38.303222,-0.275,-9.946,-2.55
38.313211,-0.235,-9.978,-2.596
38.3232,-0.235,-9.999,-2.48
38.333189,-0.196,-9.967,-2.435
38.343178,-0.157,-9.946,-2.55
38.353178,-0.118,-9.999,-2.48
38.363178,-0.118,-9.974,-2.396
38.373178,-0.157,-9.894,-2.621
38.383178,-0.118,-9.894,-2.621
38.393178,-0.078,-9.862,-2.575
38.403178,-0.078,-9.883,-2.46
38.413178,-0.078,-9.855,-2.614
38.423178,-0.039,-9.803,-2.685
38.433178,-0.039,-9.785,-2.562
38.443178,-0.039,-9.778,-2.6
38.453178,-0.039,-9.778,-2.6
38.463178,-0.039,-9.74,-2.594
38.473178,-0.039,-9.708,-2.548
38.48319,0.0,-9.681,-2.703
38.493202,0.0,-9.715,-2.51
38.503214,0.0,-9.715,-2.51
38.513226,0.039,-9.708,-2.548
38.523238,0.039,-9.701,-2.587
38.53325,0.039,-9.676,-2.503
38.543262,0.039,-9.721,-2.471
38.553274,0.0,-9.746,-2.555
38.563286,-0.039,-9.83,-2.53
38.573298,-0.039,-9.799,-2.485
38.58331,-0.078,-9.837,-2.491
38.593322,-0.078,-9.89,-2.421
38.603334,-0.118,-9.967,-2.435
38.613351,-0.118,-9.819,-2.369
38.623368,-0.118,-9.935,-2.389
38.633385,-0.157,-9.935,-2.389
38.643402,-0.157,-9.928,-2.428
38.653419,-0.157,-9.935,-2.389
38.663436,-0.196,-9.921,-2.466
38.673453,-0.196,-9.883,-2.46
38.68347,-0.196,-9.858,-2.375
38.693487,-0.235,-9.844,-2.453
38.703504,-0.196,-9.837,-2.491
38.713521,-0.196,-9.812,-2.407
38.723538,-0.157,-9.799,-2.485
38.733555,-0.118,-9.812,-2.407
38.743572,-0.157,-9.805,-2.446
38.753575,-0.118,-9.805,-2.446
38.763578,-0.118,-9.812,-2.407
38.773581,-0.118,-9.799,-2.485
38.783584,-0.157,-9.76,-2.478
38.793587,-0.157,-9.805,-2.446
