Time,AccelerometerX,AccelerometerY,AccelerometerZ 
-0.165274,-0.314,-10.014,2.576
-0.155309,-0.314,-9.937,2.59
-0.145344,-0.314,-9.873,2.68
-0.135379,-0.235,-9.746,2.862
-0.125414,-0.196,-9.662,2.837
-0.115449,-0.118,-9.591,2.889
-0.105484,-0.039,-9.618,3.044
-0.095519,0.039,-9.664,3.076
-0.085554,0.118,-9.689,2.992
-0.075589,0.118,-9.755,3.139
-0.065624,0.157,-9.832,3.126
-0.055659,0.235,-9.871,3.119
-0.045694,0.314,-9.948,3.105
-0.035729,0.275,-10.13,3.233
-0.025779,0.275,-10.239,3.174
-0.015829,0.235,-10.252,3.251
-0.005879,0.196,-10.127,2.994
0.004071,0.118,-10.123,3.194
0.014021,0.039,-10.13,3.233
0.023971,0.039,-10.155,3.149
0.033921,-0.039,-10.232,3.135
0.043871,-0.078,-10.166,2.987
0.053821,-0.078,-10.191,2.903
0.063771,-0.118,-10.132,2.794
0.073721,-0.118,-10.164,2.749
0.083671,-0.118,-10.091,2.562
0.093621,-0.118,-9.987,2.421
0.103571,-0.157,-9.909,2.435
0.113518,-0.157,-9.741,2.385
0.123465,-0.196,-9.587,2.412
0.133412,-0.235,-9.505,2.626
0.143359,-0.275,-9.316,2.46
0.153306,-0.314,-9.316,2.46
0.163253,-0.314,-9.471,2.433
0.1732,-0.275,-9.714,2.231
0.183147,-0.157,-9.714,2.231
0.193094,-0.118,-9.893,2.119
0.203041,-0.078,-9.984,2.183
0.212988,-0.078,-9.978,2.144
0.222935,-0.078,-9.953,2.228
0.232882,-0.039,-9.83,2.21
0.242848,-0.039,-9.773,2.34
0.252814,-0.078,-9.637,2.244
0.26278,-0.078,-9.605,2.29
0.272746,-0.118,-9.598,2.251
0.282712,-0.078,-9.553,2.219
0.292678,-0.196,-9.528,2.303
0.302644,-0.235,-9.598,2.251
0.31261,-0.275,-9.657,2.36
0.322576,-0.275,-9.728,2.308
0.332542,-0.353,-9.818,2.371
0.342508,-0.353,-9.903,2.396
0.352474,-0.392,-10.005,2.299
0.36244,-0.431,-10.148,2.433
0.372406,-0.431,-10.218,2.381
0.382372,-0.471,-10.243,2.296
0.392338,-0.431,-10.264,2.412
0.402304,-0.431,-10.268,2.212
0.41227,-0.471,-10.412,2.347
0.422236,-0.392,-10.398,2.269
0.432202,-0.353,-10.5,2.172
0.442168,-0.314,-10.532,2.126
0.452134,-0.196,-10.582,1.958
0.4621,-0.235,-10.627,1.99
0.472066,-0.235,-10.607,1.874
0.482032,-0.235,-10.541,1.726
0.491998,-0.235,-10.475,1.578
0.501964,-0.235,-10.423,1.508
0.511931,-0.275,-10.332,1.444
0.521898,-0.314,-10.291,1.213
0.531865,-0.275,-10.269,0.858
0.541832,-0.314,-10.307,0.851
0.551799,-0.275,-10.216,0.788
0.561766,-0.314,-10.169,0.517
0.571733,-0.314,-10.071,0.415
0.5817,-0.353,-9.928,0.281
0.591667,-0.392,-9.746,0.154
0.601634,-0.431,-9.628,-0.065
0.611601,-0.471,-9.537,-0.128
0.621568,-0.51,-9.439,-0.23
0.631535,-0.549,-9.335,-0.371
0.641502,-0.549,-9.346,-0.533
0.651439,-0.588,-9.371,-0.617
0.661376,-0.588,-9.358,-0.694
0.671313,-0.549,-9.389,-0.739
0.68125,-0.588,-9.355,-0.933
0.691187,-0.628,-9.426,-0.985
0.701124,-0.628,-9.458,-1.03
0.711061,-0.667,-9.483,-1.114
0.720998,-0.706,-9.469,-1.192
0.730935,-0.706,-9.553,-1.167
0.740872,-0.706,-9.61,-1.296
0.750809,-0.706,-9.655,-1.264
0.760746,-0.745,-9.68,-1.348
0.770683,-0.745,-9.674,-1.387
0.780599,-0.745,-9.712,-1.394
0.790515,-0.785,-9.646,-1.542
0.800431,-0.785,-9.692,-1.51
0.810347,-0.785,-9.678,-1.587
0.820263,-0.745,-9.73,-1.517
0.830179,-0.785,-9.671,-1.626
0.840095,-0.785,-9.619,-1.696
0.850011,-0.785,-9.619,-1.696
0.859927,-0.785,-9.651,-1.742
0.869843,-0.785,-9.644,-1.78
0.879759,-0.745,-9.683,-1.787
0.889675,-0.824,-9.676,-1.826
0.899591,-0.785,-9.76,-1.801
0.909502,-0.745,-9.778,-1.923
0.919413,-0.785,-9.803,-2.007
0.929324,-0.745,-9.817,-1.93
0.939235,-0.745,-9.726,-1.994
0.949146,-0.667,-9.694,-1.948
0.959057,-0.667,-9.662,-1.903
0.968968,-0.628,-9.655,-1.942
0.978879,-0.628,-9.683,-1.787
0.98879,-0.628,-9.624,-1.896
0.998701,-0.667,-9.617,-1.935
1.008612,-0.588,-9.687,-1.987
1.018523,-0.549,-9.739,-1.916
1.028434,-0.549,-9.81,-1.969
1.03834,-0.51,-9.79,-2.085
1.048246,-0.549,-9.817,-1.93
1.058152,-0.549,-9.835,-2.053
1.068058,-0.51,-9.824,-1.891
1.077964,-0.51,-9.817,-1.93
1.08787,-0.588,-9.842,-2.014
1.097776,-0.588,-9.758,-2.039
1.107682,-0.549,-9.758,-2.039
1.117588,-0.51,-9.694,-1.948
1.127494,-0.51,-9.687,-1.987
1.1374,-0.51,-9.701,-1.91
1.147306,-0.51,-9.687,-1.987
1.157212,-0.431,-9.726,-1.994
1.167118,-0.431,-9.803,-2.007
1.177028,-0.471,-9.849,-1.976
1.186938,-0.471,-9.855,-1.937
1.196848,-0.51,-9.817,-1.93
1.206758,-0.549,-9.844,-1.776
1.216668,-0.588,-9.844,-1.776
1.226578,-0.628,-9.837,-1.814
1.236488,-0.628,-9.824,-1.891
1.246398,-0.628,-9.851,-1.737
1.256308,-0.588,-9.871,-1.621
1.266218,-0.628,-9.864,-1.66
1.276128,-0.628,-9.774,-1.723
1.286038,-0.667,-9.833,-1.614
1.295948,-0.628,-9.955,-1.596
1.305873,-0.667,-9.955,-1.596
1.315798,-0.706,-9.928,-1.751
1.325723,-0.667,-10.033,-1.61
1.335648,-0.628,-10.078,-1.578
1.345573,-0.588,-10.155,-1.591
1.355498,-0.588,-10.148,-1.63
1.365423,-0.588,-10.148,-1.63
1.375348,-0.588,-10.128,-1.746
1.385273,-0.549,-10.121,-1.785
1.395198,-0.471,-10.142,-1.669
1.405123,-0.392,-10.326,-1.98
1.415048,-0.471,-10.11,-1.623
1.424973,-0.431,-9.967,-1.757
1.434875,-0.392,-9.842,-2.014
1.444777,-0.431,-9.851,-1.737
1.454679,-0.471,-9.858,-1.698
1.464581,-0.471,-9.862,-1.898
1.474483,-0.431,-9.83,-1.853
1.484385,-0.431,-9.855,-1.937
1.494287,-0.392,-9.862,-1.898
1.504189,-0.392,-9.842,-2.014
1.514091,-0.353,-9.914,-1.828
1.523993,-0.353,-9.901,-1.905
1.533895,-0.353,-9.914,-1.828
1.543797,-0.314,-9.849,-1.976
1.553699,-0.314,-9.908,-1.866
1.563601,-0.275,-9.901,-1.905
1.573503,-0.275,-9.908,-1.866
1.583397,-0.235,-9.83,-1.853
1.593291,-0.235,-9.858,-1.698
1.603185,-0.196,-9.851,-1.737
1.613079,-0.196,-9.844,-1.776
1.622973,-0.157,-9.844,-1.776
1.632867,-0.196,-9.862,-1.898
1.642761,-0.196,-9.908,-1.866
1.652655,-0.196,-9.914,-1.828
1.662549,-0.235,-9.876,-1.821
1.672443,-0.235,-9.837,-1.814
1.682337,-0.235,-9.883,-1.782
1.692231,-0.275,-9.871,-1.621
1.702128,-0.275,-9.914,-1.828
1.712025,-0.275,-9.942,-1.673
1.721922,-0.275,-9.928,-1.751
1.731819,-0.314,-9.98,-1.68
1.741716,-0.314,-9.967,-1.757
1.751613,-0.275,-9.994,-1.603
1.76151,-0.314,-10.001,-1.564
1.771407,-0.353,-10.046,-1.532
1.781304,-0.353,-10.001,-1.564
1.791201,-0.392,-9.994,-1.603
1.801098,-0.353,-10.039,-1.571
1.810995,-0.353,-10.033,-1.61
1.820892,-0.353,-10.039,-1.571
1.830802,-0.314,-10.001,-1.564
1.840712,-0.275,-10.039,-1.571
1.850622,-0.275,-10.039,-1.571
1.860532,-0.314,-10.008,-1.526
1.870442,-0.314,-9.994,-1.603
1.880352,-0.353,-10.001,-1.564
1.890262,-0.314,-9.949,-1.635
1.900172,-0.314,-9.955,-1.596
1.910082,-0.314,-9.935,-1.712
1.919992,-0.314,-9.967,-1.757
1.929902,-0.314,-10.026,-1.648
1.939812,-0.314,-9.994,-1.603
1.949722,-0.353,-9.976,-1.48
1.959632,-0.392,-9.942,-1.673
1.969542,-0.431,-9.924,-1.551
1.979452,-0.471,-9.949,-1.635
1.989359,-0.51,-9.987,-1.642
1.999266,-0.549,-10.014,-1.487
2.009173,-0.588,-9.98,-1.68
2.01908,-0.628,-9.987,-1.642
2.028987,-0.628,-9.987,-1.642
2.038894,-0.706,-9.985,-1.88
2.048801,-0.667,-10.049,-1.971
2.058708,-0.667,-10.094,-1.939
2.068615,-0.588,-10.074,-2.055
2.078522,-0.549,-9.976,-2.157
2.088429,-0.549,-9.955,-2.273
2.098336,-0.549,-9.871,-2.298
2.108228,-0.549,-9.883,-2.46
2.11812,-0.549,-9.826,-2.33
2.128012,-0.549,-9.749,-2.316
2.137904,-0.549,-9.683,-2.464
2.147796,-0.588,-9.644,-2.457
2.157688,-0.628,-9.612,-2.412
2.16758,-0.588,-9.574,-2.405
2.177472,-0.588,-9.419,-2.378
2.187364,-0.588,-9.349,-2.326
2.197256,-0.588,-9.278,-2.273
2.207148,-0.588,-9.331,-2.203
2.21704,-0.549,-9.426,-2.339
2.226932,-0.549,-9.594,-2.289
2.236824,-0.549,-9.64,-2.257
2.246738,-0.51,-9.653,-2.18
2.256652,-0.549,-9.674,-2.064
2.266566,-0.471,-9.596,-2.051
2.27648,-0.471,-9.505,-2.114
2.286394,-0.431,-9.505,-2.114
2.296308,-0.314,-9.512,-2.076
2.306222,-0.275,-9.505,-2.114
2.316136,-0.157,-9.526,-1.998
2.32605,0.0,-9.558,-2.044
2.335964,0.118,-9.751,-2.078
2.345878,0.235,-9.892,-2.182
2.355792,0.431,-9.976,-2.157
2.365707,0.667,-9.905,-2.105
2.375622,0.941,-9.914,-1.828
2.385537,1.255,-9.876,-1.821
2.395452,1.608,-9.851,-1.737
2.405367,1.804,-9.746,-1.878
2.415282,2.001,-9.837,-1.814
2.425197,2.157,-9.869,-1.86
2.435112,2.314,-9.953,-1.835
2.445027,2.471,-9.953,-1.835
2.454942,2.589,-10.224,-1.882
2.464857,2.707,-10.224,-1.882
2.474772,2.824,-10.405,-1.755
2.484687,2.903,-10.553,-1.821
2.494602,2.981,-10.655,-1.919
2.504548,3.06,-10.746,-1.855
2.514494,1.373,-12.093,0.815
2.52444,1.138,-11.669,-1.141
2.534386,3.373,-9.651,-2.419
2.544332,3.177,-8.694,-3.325
2.554278,3.452,-9.415,-2.178
2.564224,2.314,-9.944,-1.435
2.57417,2.511,-8.042,-4.764
2.584116,2.236,-10.119,-0.669
2.594062,1.804,-9.162,-2.253
2.604008,1.569,-9.321,-0.449
2.613954,1.844,-8.204,-3.398
2.6239,1.687,-9.426,-1.662
2.633872,1.53,-9.135,-2.407
2.643844,1.491,-9.44,-1.585
2.653816,1.412,-9.101,-2.601
2.663788,1.53,-9.537,-2.16
2.67376,1.844,-9.444,-2.462
2.683732,1.961,-9.601,-2.251
2.693704,1.883,-9.653,-2.18
2.703676,1.922,-9.633,-2.296
2.713648,2.001,-9.783,-2.123
2.72362,1.961,-9.671,-2.303
2.733592,2.04,-9.951,-2.073
2.743564,2.118,-9.803,-2.685
2.753536,2.197,-10.028,-2.087
2.763526,2.236,-9.846,-2.214
2.773516,2.314,-9.874,-2.06
2.783506,2.314,-9.774,-2.4
2.793496,2.314,-9.84,-2.253
2.803486,2.275,-9.871,-2.298
2.813476,2.275,-9.949,-2.312
2.823466,2.275,-9.91,-2.305
2.833456,2.197,-9.724,-2.232
2.843446,2.157,-9.69,-2.426
2.853436,2.079,-9.612,-2.412
2.863426,2.04,-9.64,-2.257
2.873416,1.922,-9.521,-2.476
2.883406,1.804,-9.671,-2.303
2.893396,1.687,-9.58,-2.366
2.903386,1.608,-9.844,-2.453
2.913371,1.491,-9.858,-2.375
2.923356,1.451,-9.928,-2.428
2.933341,1.412,-9.935,-2.389
2.943326,1.412,-9.824,-2.569
2.953311,1.412,-9.81,-2.646
2.963296,1.412,-9.83,-2.53
2.973281,1.451,-9.726,-2.671
2.983266,1.491,-9.726,-2.671
2.993251,1.53,-9.708,-2.548
3.003236,1.53,-9.565,-2.682
3.013221,1.569,-9.59,-2.766
3.023206,1.569,-9.59,-2.766
3.033207,1.569,-9.621,-2.812
3.043208,1.569,-9.633,-2.973
3.053209,1.608,-9.751,-2.755
3.06321,1.726,-9.776,-2.839
3.073211,1.844,-9.796,-2.723
3.083212,2.079,-9.855,-2.614
3.093213,2.197,-9.86,-2.814
3.103214,2.354,-9.86,-2.814
3.113215,2.393,-9.737,-2.832
3.123216,2.314,-9.54,-2.598
3.133217,2.118,-9.376,-2.848
3.143218,2.001,-9.362,-2.925
3.153219,1.922,-9.569,-2.882
3.163223,1.765,-9.712,-2.748
3.173227,1.53,-9.506,-2.791
3.183231,1.451,-9.406,-3.132
3.193235,1.373,-9.51,-2.991
3.203239,1.294,-9.569,-2.882
3.213243,1.294,-9.497,-3.069
3.223247,1.255,-9.456,-3.3
3.233251,1.177,-9.547,-3.237
3.243255,1.177,-9.558,-3.398
3.253259,1.098,-9.558,-3.398
3.263263,0.902,-9.46,-3.5
3.273267,0.785,-9.435,-3.416
3.283271,0.745,-9.422,-3.494
3.293279,0.628,-9.403,-3.371
3.303287,0.549,-9.292,-3.55
3.313295,0.549,-9.215,-3.537
3.323303,0.549,-9.24,-3.621
3.333311,0.549,-9.247,-3.582
3.343319,0.51,-9.324,-3.596
3.353327,0.431,-9.331,-3.557
3.363335,0.392,-9.324,-3.596
3.373343,0.353,-9.313,-3.434
3.383351,0.314,-9.292,-3.55
3.393359,0.353,-9.247,-3.582
3.403367,0.314,-9.292,-3.55
3.413375,0.314,-9.335,-3.757
3.423365,0.314,-9.381,-3.725
3.433355,0.353,-9.426,-3.694
3.443345,0.353,-9.406,-3.809
3.453335,0.353,-9.394,-3.648
3.463325,0.353,-9.356,-3.641
3.473315,0.353,-9.124,-3.6
3.483305,0.392,-9.24,-3.621
3.493295,0.353,-9.24,-3.621
3.503285,0.353,-9.292,-3.55
3.513275,0.431,-9.338,-3.519
3.523265,0.431,-9.324,-3.596
3.533255,0.431,-9.306,-3.473
3.543245,0.431,-9.288,-3.35
3.553235,0.392,-9.276,-3.189
3.563187,0.431,-9.308,-3.235
3.573139,0.431,-9.399,-3.171
3.583091,0.431,-9.528,-3.114
3.593043,0.431,-9.64,-2.935
3.602995,0.431,-9.703,-3.025
3.612947,0.392,-9.853,-2.853
3.622899,0.392,-9.983,-2.796
3.632851,0.392,-10.053,-2.848
3.642803,0.353,-10.176,-2.83
3.652755,0.353,-10.162,-2.907
3.662707,0.353,-10.201,-2.914
3.672659,0.353,-10.233,-2.959
3.682611,0.392,-10.194,-2.953
3.692542,0.314,-10.101,-3.255
3.702473,0.353,-10.09,-3.094
3.712404,0.314,-9.946,-3.228
3.722335,0.314,-9.869,-3.214
3.732266,0.314,-9.81,-3.323
3.742197,0.235,-9.74,-3.271
3.752128,0.235,-9.624,-3.25
3.762059,0.235,-9.526,-3.353
3.77199,0.157,-9.487,-3.346
3.781921,0.196,-9.487,-3.346
3.791852,0.157,-9.442,-3.378
3.801783,0.157,-9.403,-3.371
3.811714,0.196,-9.376,-3.525
3.821614,0.196,-9.383,-3.487
3.831514,0.196,-9.383,-3.487
3.841414,0.196,-9.408,-3.571
3.851314,0.235,-9.369,-3.564
3.861214,0.275,-9.363,-3.603
3.871114,0.314,-9.401,-3.609
3.881014,0.353,-9.338,-3.519
3.890914,0.353,-9.324,-3.596
3.900814,0.353,-9.338,-3.519
3.910714,0.392,-9.31,-3.673
3.920614,0.431,-9.394,-3.648
3.930514,0.431,-9.394,-3.648
3.940414,0.431,-9.447,-3.578
3.950314,0.431,-9.433,-3.655
3.960186,0.431,-9.406,-3.809
3.970058,0.392,-9.408,-3.571
3.97993,0.392,-9.394,-3.648
3.989802,0.431,-9.415,-3.532
3.999674,0.392,-9.485,-3.584
4.009546,0.392,-9.419,-3.732
4.019418,0.392,-9.485,-3.584
4.02929,0.392,-9.394,-3.648
4.039162,0.353,-9.401,-3.609
4.049034,0.314,-9.401,-3.609
4.058906,0.275,-9.394,-3.648
4.068778,0.314,-9.356,-3.641
4.07865,0.235,-9.376,-3.525
4.088511,0.235,-9.428,-3.455
4.098372,0.196,-9.46,-3.5
4.108233,0.235,-9.442,-3.378
4.118094,0.196,-9.428,-3.455
4.127955,0.196,-9.449,-3.339
4.137816,0.196,-9.383,-3.487
4.147677,0.196,-9.422,-3.494
4.157538,0.157,-9.442,-3.378
4.167399,0.196,-9.435,-3.416
4.17726,0.196,-9.481,-3.384
4.187121,0.196,-9.487,-3.346
4.196982,0.196,-9.533,-3.314
4.206843,0.157,-9.553,-3.198
4.216705,0.157,-9.547,-3.237
4.226567,0.157,-9.547,-3.237
4.236429,0.118,-9.56,-3.159
4.246291,0.078,-9.567,-3.121
4.256153,0.118,-9.599,-3.166
4.266015,0.078,-9.703,-3.025
4.275877,0.118,-9.742,-3.032
4.285739,0.078,-9.787,-3.0
4.295601,0.039,-9.801,-2.923
4.305463,0.078,-9.84,-2.93
4.315325,0.078,-9.846,-2.891
4.325187,0.118,-9.86,-2.814
4.335049,0.118,-9.853,-2.853
4.344921,0.118,-9.821,-2.807
4.354793,0.196,-9.815,-2.846
4.364665,0.157,-9.86,-2.814
4.374537,0.235,-9.821,-2.807
4.384409,0.235,-9.769,-2.878
4.394281,0.235,-9.815,-2.846
4.404153,0.275,-9.81,-2.646
4.414025,0.314,-9.853,-2.853
4.423897,0.314,-9.86,-2.814
4.433769,0.314,-9.86,-2.814
4.443641,0.314,-9.874,-2.737
4.453513,0.392,-9.874,-2.737
4.463385,0.353,-9.867,-2.775
4.473257,0.392,-9.849,-2.653
4.483116,0.314,-9.801,-2.923
4.492975,0.392,-9.749,-2.994
4.502834,0.392,-9.796,-2.723
4.512693,0.353,-9.79,-2.762
4.522552,0.275,-9.751,-2.755
4.532411,0.275,-9.751,-2.755
4.54227,0.196,-9.783,-2.8
4.552129,0.157,-9.751,-2.755
4.561988,0.196,-9.796,-2.723
4.571847,0.196,-9.835,-2.73
4.581706,0.157,-9.79,-2.762
4.591565,0.118,-9.758,-2.716
4.601424,0.078,-9.758,-2.716
4.611286,0.118,-9.744,-2.794
4.621148,0.157,-9.726,-2.671
4.63101,0.118,-9.733,-2.632
4.640872,0.157,-9.765,-2.678
4.650734,0.157,-9.751,-2.755
4.660596,0.157,-9.758,-2.716
4.670458,0.157,-9.778,-2.6
4.68032,0.157,-9.758,-2.716
4.690182,0.196,-9.796,-2.723
4.700044,0.196,-9.758,-2.716
4.709906,0.196,-9.81,-2.646
4.719768,0.196,-9.765,-2.678
4.72963,0.235,-9.771,-2.639
4.739508,0.196,-9.79,-2.762
4.749386,0.157,-9.817,-2.607
4.759264,0.157,-9.835,-2.73
4.769142,0.157,-9.803,-2.685
4.77902,0.157,-9.778,-2.6
4.788898,0.157,-9.771,-2.639
4.798776,0.157,-9.765,-2.678
4.808654,0.118,-9.765,-2.678
4.818532,0.118,-9.796,-2.723
4.82841,0.118,-9.799,-2.485
4.838288,0.118,-9.79,-2.762
4.848166,0.118,-9.765,-2.678
4.858044,0.118,-9.751,-2.755
4.867945,0.078,-9.765,-2.678
4.877846,0.078,-9.771,-2.639
4.887747,0.078,-9.796,-2.723
4.897648,0.078,-9.758,-2.716
4.907549,0.078,-9.758,-2.716
4.91745,0.118,-9.765,-2.678
4.927351,0.118,-9.81,-2.646
4.937252,0.118,-9.758,-2.716
4.947153,0.118,-9.783,-2.8
4.957054,0.118,-9.765,-2.678
4.966955,0.157,-9.765,-2.678
4.976856,0.157,-9.726,-2.671
4.986757,0.118,-9.744,-2.794
4.996651,0.118,-9.783,-2.8
5.006545,0.118,-9.803,-2.685
5.016439,0.118,-9.726,-2.671
5.026333,0.118,-9.758,-2.716
5.036227,0.118,-9.751,-2.755
5.046121,0.118,-9.751,-2.755
5.056015,0.157,-9.737,-2.832
5.065909,0.196,-9.751,-2.755
5.075803,0.196,-9.771,-2.639
5.085697,0.157,-9.744,-2.794
5.095591,0.157,-9.744,-2.794
5.105485,0.157,-9.751,-2.755
5.115379,0.157,-9.783,-2.8
5.125273,0.118,-9.765,-2.678
5.135166,0.118,-9.706,-2.787
5.145059,0.157,-9.712,-2.748
5.154952,0.157,-9.681,-2.703
5.164845,0.196,-9.674,-2.741
5.174738,0.157,-9.681,-2.703
5.184631,0.118,-9.719,-2.71
5.194524,0.118,-9.719,-2.71
5.204417,0.118,-9.719,-2.71
5.21431,0.157,-9.765,-2.678
5.224203,0.157,-9.758,-2.716
5.234096,0.157,-9.765,-2.678
5.243989,0.196,-9.744,-2.794
5.253882,0.196,-9.758,-2.716
5.26378,0.235,-9.71,-2.987
5.273678,0.275,-9.724,-2.91
5.283576,0.235,-9.737,-2.832
5.293474,0.235,-9.737,-2.832
5.303372,0.235,-9.79,-2.762
5.31327,0.275,-9.751,-2.755
5.323168,0.235,-9.79,-2.762
5.333066,0.235,-9.751,-2.755
5.342964,0.235,-9.719,-2.71
5.352862,0.235,-9.733,-2.632
5.36276,0.235,-9.751,-2.755
5.372658,0.157,-9.751,-2.755
5.382556,0.196,-9.751,-2.755
5.392454,0.196,-9.751,-2.755
5.402371,0.157,-9.769,-2.878
5.412288,0.196,-9.796,-2.723
5.422205,0.196,-9.79,-2.762
5.432122,0.157,-9.79,-2.762
5.442039,0.157,-9.803,-2.685
5.451956,0.157,-9.744,-2.794
5.461873,0.118,-9.758,-2.716
5.47179,0.118,-9.712,-2.748
5.481707,0.118,-9.744,-2.794
5.491624,0.118,-9.744,-2.794
5.501541,0.118,-9.712,-2.748
5.511458,0.078,-9.737,-2.832
5.521375,0.118,-9.744,-2.794
5.531325,0.157,-9.81,-2.646
5.541275,0.157,-9.737,-2.832
5.551225,0.118,-9.737,-2.832
5.561175,0.118,-9.724,-2.91
5.571125,0.118,-9.783,-2.8
5.581075,0.118,-9.769,-2.878
5.591025,0.078,-9.769,-2.878
5.600975,0.118,-9.769,-2.878
5.610925,0.118,-9.776,-2.839
5.620875,0.078,-9.762,-2.916
5.630825,0.118,-9.703,-3.025
5.640775,0.078,-9.71,-2.987
5.650725,0.078,-9.717,-2.948
5.660694,0.118,-9.685,-2.903
5.670663,0.078,-9.64,-2.935
5.680632,0.118,-9.594,-2.966
5.690601,0.118,-9.633,-2.973
5.70057,0.118,-9.64,-2.935
5.710539,0.118,-9.665,-3.019
5.720508,0.118,-9.619,-3.05
5.730477,0.118,-9.633,-2.973
5.740446,0.118,-9.601,-2.928
5.750415,0.157,-9.626,-3.012
5.760384,0.157,-9.626,-3.012
5.770353,0.157,-9.606,-3.128
5.780322,0.196,-9.626,-3.012
5.790291,0.157,-9.678,-2.941
5.80026,0.157,-9.612,-3.089
5.810255,0.157,-9.619,-3.05
5.82025,0.118,-9.637,-3.173
5.830245,0.118,-9.671,-2.98
5.84024,0.157,-9.658,-3.057
5.850235,0.157,-9.685,-2.903
5.86023,0.157,-9.665,-3.019
5.870225,0.157,-9.626,-3.012
5.88022,0.157,-9.665,-3.019
5.890215,0.157,-9.619,-3.05
5.90021,0.196,-9.619,-3.05
5.910205,0.196,-9.644,-3.134
5.9202,0.235,-9.658,-3.057
5.93022,0.235,-9.696,-3.064
5.94024,0.235,-9.683,-3.141
5.95026,0.196,-9.703,-3.025
5.96028,0.235,-9.71,-2.987
5.9703,0.196,-9.665,-3.019
5.98032,0.157,-9.678,-2.941
5.99034,0.157,-9.665,-3.019
6.00036,0.118,-9.678,-2.941
6.01038,0.157,-9.646,-2.896
6.0204,0.118,-9.633,-2.973
6.03042,0.157,-9.64,-2.935
6.04044,0.157,-9.626,-3.012
6.05046,0.157,-9.737,-2.832
6.06046,0.196,-9.685,-2.903
6.07046,0.196,-9.71,-2.987
6.08046,0.196,-9.724,-2.91
6.09046,0.196,-9.717,-2.948
6.10046,0.157,-9.742,-3.032
6.11046,0.157,-9.756,-2.955
6.12046,0.157,-9.84,-2.93
6.13046,0.157,-9.756,-2.955
6.14046,0.157,-9.787,-3.0
6.15046,0.157,-9.762,-2.916
6.16046,0.157,-9.724,-2.91
6.17046,0.157,-9.71,-2.987
6.18046,0.157,-9.724,-2.91
6.19046,0.157,-9.737,-2.832
6.200481,0.157,-9.678,-2.941
6.210502,0.157,-9.717,-2.948
6.220523,0.157,-9.724,-2.91
6.230544,0.157,-9.731,-2.871
6.240565,0.118,-9.692,-2.864
6.250586,0.157,-9.731,-2.871
6.260607,0.118,-9.731,-2.871
6.270628,0.078,-9.749,-2.994
6.280649,0.078,-9.724,-2.91
6.29067,0.078,-9.724,-2.91
6.300691,0.118,-9.731,-2.871
6.310712,0.078,-9.737,-2.832
6.320733,0.118,-9.678,-2.941
6.330748,0.118,-9.724,-2.91
6.340763,0.078,-9.717,-2.948
6.350778,0.078,-9.665,-3.019
6.360793,0.118,-9.685,-2.903
6.370808,0.078,-9.724,-2.91
6.380823,0.118,-9.724,-2.91
6.390838,0.118,-9.756,-2.955
6.400853,0.118,-9.756,-2.955
6.410868,0.118,-9.717,-2.948
6.420883,0.118,-9.685,-2.903
6.430898,0.118,-9.678,-2.941
6.440913,0.078,-9.717,-2.948
6.450928,0.078,-9.724,-2.91
6.460943,0.118,-9.685,-2.903
6.470917,0.118,-9.653,-2.857
6.480891,0.118,-9.692,-2.864
6.490865,0.078,-9.671,-2.98
6.500839,0.078,-9.671,-2.98
6.510813,0.078,-9.678,-2.941
6.520787,0.078,-9.71,-2.987
6.530761,0.078,-9.71,-2.987
6.540735,0.078,-9.692,-2.864
6.550709,0.078,-9.671,-2.98
6.560683,0.118,-9.651,-3.096
6.570657,0.118,-9.717,-2.948
6.580631,0.118,-9.671,-2.98
6.590605,0.078,-9.678,-2.941
6.600561,0.078,-9.696,-3.064
6.610517,0.118,-9.665,-3.019
6.620473,0.118,-9.678,-2.941
6.630429,0.118,-9.665,-3.019
6.640385,0.157,-9.64,-2.935
6.650341,0.157,-9.64,-2.935
6.660297,0.157,-9.671,-2.98
6.670253,0.157,-9.826,-3.007
6.680209,0.196,-9.71,-2.987
6.690165,0.196,-9.671,-2.98
6.700121,0.157,-9.678,-2.941
6.710077,0.235,-9.626,-3.012
6.720033,0.235,-9.633,-2.973
6.729989,0.157,-9.646,-2.896
6.739929,0.196,-9.612,-3.089
6.749869,0.196,-9.665,-3.019
6.759809,0.235,-9.665,-3.019
6.769749,0.235,-9.671,-2.98
6.779689,0.235,-9.756,-2.955
6.789629,0.275,-9.731,-2.871
6.799569,0.275,-9.71,-2.987
6.809509,0.275,-9.685,-2.903
6.819449,0.275,-9.703,-3.025
6.829389,0.196,-9.678,-2.941
6.839329,0.196,-9.64,-2.935
6.849269,0.196,-9.633,-2.973
6.859209,0.196,-9.646,-2.896
6.869134,0.118,-9.615,-2.85
6.879059,0.118,-9.608,-2.889
6.888984,0.157,-9.678,-2.941
6.898909,0.196,-9.731,-2.871
6.908834,0.157,-9.724,-2.91
6.918759,0.157,-9.731,-2.871
6.928684,0.157,-9.731,-2.871
6.938609,0.196,-9.762,-2.916
6.948534,0.196,-9.783,-2.8
6.958459,0.118,-9.756,-2.955
6.968384,0.157,-9.762,-2.916
6.978309,0.157,-9.769,-2.878
6.988234,0.196,-9.787,-3.0
6.998151,0.157,-9.762,-2.916
7.008068,0.157,-9.737,-2.832
7.017985,0.196,-9.749,-2.994
7.027902,0.157,-9.731,-2.871
7.037819,0.157,-9.724,-2.91
7.047736,0.157,-9.731,-2.871
7.057653,0.157,-9.731,-2.871
7.06757,0.157,-9.762,-2.916
7.077487,0.157,-9.742,-3.032
7.087404,0.196,-9.776,-2.839
7.097321,0.157,-9.749,-2.994
7.107238,0.157,-9.724,-2.91
7.117155,0.118,-9.685,-2.903
7.127072,0.118,-9.692,-2.864
7.136989,0.118,-9.685,-2.903
7.146866,0.118,-9.671,-2.98
7.156743,0.118,-9.692,-2.864
7.16662,0.118,-9.671,-2.98
7.176497,0.157,-9.699,-2.825
7.186374,0.196,-9.671,-2.98
7.196251,0.157,-9.671,-2.98
7.206128,0.157,-9.678,-2.941
7.216005,0.157,-9.678,-2.941
7.225882,0.157,-9.731,-2.871
7.235759,0.196,-9.671,-2.98
7.245636,0.235,-9.717,-2.948
7.255513,0.157,-9.717,-2.948
7.265366,0.235,-9.703,-3.025
7.275219,0.235,-9.71,-2.987
7.285072,0.157,-9.717,-2.948
7.294925,0.157,-9.731,-2.871
7.304778,0.118,-9.692,-2.864
7.314631,0.157,-9.717,-2.948
7.324484,0.118,-9.703,-3.025
7.334337,0.118,-9.685,-2.903
7.34419,0.118,-9.717,-2.948
7.354043,0.118,-9.696,-3.064
7.363896,0.157,-9.717,-2.948
7.373749,0.157,-9.665,-3.019
7.383602,0.157,-9.678,-2.941
7.393445,0.196,-9.651,-3.096
7.403288,0.235,-9.724,-2.91
7.413131,0.235,-9.724,-2.91
7.422974,0.235,-9.71,-2.987
7.432817,0.235,-9.678,-2.941
7.44266,0.196,-9.665,-3.019
7.452503,0.235,-9.665,-3.019
7.462346,0.275,-9.696,-3.064
7.472189,0.275,-9.696,-3.064
7.482032,0.235,-9.696,-3.064
7.491875,0.235,-9.678,-2.941
7.501718,0.235,-9.71,-2.987
7.511561,0.235,-9.71,-2.987
7.5214,0.235,-9.665,-3.019
7.531239,0.275,-9.644,-3.134
7.541078,0.235,-9.685,-2.903
7.550917,0.235,-9.626,-3.012
7.560756,0.196,-9.626,-3.012
7.570595,0.196,-9.651,-3.096
7.580434,0.157,-9.651,-3.096
7.590273,0.196,-9.671,-2.98
7.600112,0.196,-9.671,-2.98
7.609951,0.235,-9.665,-3.019
7.61979,0.196,-9.626,-3.012
7.629629,0.196,-9.626,-3.012
7.639468,0.235,-9.665,-3.019
7.649307,0.235,-9.696,-3.064
7.659153,0.196,-9.735,-3.071
7.668999,0.235,-9.717,-2.948
7.678845,0.235,-9.658,-3.057
7.688691,0.235,-9.69,-3.103
7.698537,0.196,-9.658,-3.057
7.708383,0.196,-9.626,-3.012
7.718229,0.196,-9.658,-3.057
7.728075,0.157,-9.633,-2.973
7.737921,0.196,-9.633,-2.973
7.747767,0.196,-9.626,-3.012
7.757613,0.196,-9.633,-2.973
7.767459,0.157,-9.626,-3.012
7.777305,0.196,-9.671,-2.98
7.787169,0.118,-9.665,-3.019
7.797033,0.196,-9.728,-3.109
7.806897,0.196,-9.742,-3.032
7.816761,0.157,-9.781,-3.039
7.826625,0.157,-9.749,-2.994
7.836489,0.196,-9.742,-3.032
7.846353,0.196,-9.742,-3.032
7.856217,0.196,-9.742,-3.032
7.866081,0.235,-9.728,-3.109
7.875945,0.235,-9.728,-3.109
7.885809,0.196,-9.644,-3.134
7.895673,0.196,-9.69,-3.103
7.905537,0.196,-9.651,-3.096
7.915408,0.157,-9.662,-3.257
7.925279,0.157,-9.696,-3.064
7.93515,0.118,-9.676,-3.18
7.945021,0.157,-9.665,-3.019
7.954892,0.157,-9.644,-3.134
7.964763,0.118,-9.651,-3.096
7.974634,0.157,-9.631,-3.212
7.984505,0.157,-9.637,-3.173
7.994376,0.196,-9.606,-3.128
8.004247,0.196,-9.631,-3.212
8.014118,0.157,-9.574,-3.082
8.023989,0.118,-9.574,-3.082
8.03386,0.118,-9.606,-3.128
8.043731,0.157,-9.553,-3.198
8.053602,0.157,-9.587,-3.005
8.063489,0.157,-9.599,-3.166
8.073376,0.118,-9.533,-3.314
8.083263,0.157,-9.578,-3.282
8.09315,0.196,-9.592,-3.205
8.103037,0.196,-9.572,-3.321
8.112924,0.235,-9.599,-3.166
8.122811,0.235,-9.592,-3.205
8.132698,0.196,-9.599,-3.166
8.142585,0.157,-9.637,-3.173
8.152472,0.196,-9.637,-3.173
8.162359,0.196,-9.612,-3.089
8.172246,0.235,-9.631,-3.212
8.182133,0.196,-9.599,-3.166
8.19205,0.235,-9.606,-3.128
8.201967,0.235,-9.592,-3.205
8.211884,0.196,-9.637,-3.173
8.221801,0.196,-9.617,-3.289
8.231718,0.196,-9.656,-3.296
8.241635,0.157,-9.676,-3.18
8.251552,0.196,-9.612,-3.089
8.261469,0.157,-9.612,-3.089
8.271386,0.196,-9.644,-3.134
8.281303,0.196,-9.631,-3.212
8.29122,0.157,-9.644,-3.134
8.301137,0.196,-9.644,-3.134
8.311054,0.235,-9.683,-3.141
8.321011,0.196,-9.649,-3.334
8.330968,0.235,-9.656,-3.296
8.340925,0.235,-9.69,-3.103
8.350882,0.235,-9.651,-3.096
8.360839,0.235,-9.69,-3.103
8.370796,0.235,-9.658,-3.057
8.380753,0.235,-9.651,-3.096
8.39071,0.196,-9.665,-3.019
8.400667,0.196,-9.696,-3.064
8.410624,0.196,-9.665,-3.019
8.420581,0.196,-9.651,-3.096
8.430538,0.235,-9.651,-3.096
8.440495,0.196,-9.69,-3.103
8.450452,0.157,-9.683,-3.141
8.460444,0.157,-9.683,-3.141
8.470436,0.196,-9.656,-3.296
8.480428,0.196,-9.694,-3.303
8.49042,0.157,-9.742,-3.032
8.500412,0.157,-9.696,-3.064
8.510404,0.196,-9.735,-3.071
8.520396,0.235,-9.696,-3.064
8.530388,0.196,-9.658,-3.057
8.54038,0.235,-9.637,-3.173
8.550372,0.235,-9.683,-3.141
8.560364,0.275,-9.728,-3.109
8.570356,0.235,-9.683,-3.141
8.580348,0.235,-9.658,-3.057
8.59037,0.275,-9.665,-3.019
8.600392,0.196,-9.599,-3.166
8.610414,0.196,-9.56,-3.159
8.620436,0.157,-9.567,-3.121
8.630458,0.157,-9.581,-3.044
8.64048,0.157,-9.612,-3.089
8.650502,0.157,-9.599,-3.166
8.660524,0.118,-9.606,-3.128
8.670546,0.157,-9.665,-3.019
8.680568,0.118,-9.626,-3.012
8.69059,0.078,-9.665,-3.019
8.700612,0.118,-9.665,-3.019
8.710634,0.118,-9.651,-3.096
8.720643,0.157,-9.637,-3.173
8.730652,0.157,-9.703,-3.025
8.740661,0.157,-9.683,-3.141
8.75067,0.157,-9.696,-3.064
8.760679,0.196,-9.676,-3.18
8.770688,0.196,-9.69,-3.103
8.780697,0.157,-9.637,-3.173
8.790706,0.157,-9.637,-3.173
8.800715,0.157,-9.69,-3.103
8.810724,0.157,-9.703,-3.025
8.820733,0.157,-9.637,-3.173
8.830742,0.157,-9.612,-3.089
8.840751,0.157,-9.624,-3.25
8.85076,0.157,-9.637,-3.173
8.860769,0.157,-9.599,-3.166
8.870767,0.196,-9.606,-3.128
8.880765,0.157,-9.651,-3.096
8.890763,0.196,-9.658,-3.057
8.900761,0.157,-9.651,-3.096
8.910759,0.157,-9.644,-3.134
8.920757,0.157,-9.606,-3.128
8.930755,0.118,-9.592,-3.205
8.940753,0.157,-9.612,-3.089
8.950751,0.118,-9.606,-3.128
8.960749,0.157,-9.637,-3.173
8.970747,0.157,-9.599,-3.166
8.980745,0.157,-9.606,-3.128
8.990743,0.157,-9.599,-3.166
9.000749,0.235,-9.71,-2.987
9.010755,0.196,-9.676,-3.18
9.020761,0.196,-9.696,-3.064
9.030767,0.196,-9.676,-3.18
9.040773,0.157,-9.637,-3.173
9.050779,0.196,-9.651,-3.096
9.060785,0.235,-9.606,-3.128
9.070791,0.235,-9.651,-3.096
9.080797,0.235,-9.637,-3.173
9.090803,0.275,-9.683,-3.141
9.100809,0.196,-9.637,-3.173
9.110815,0.157,-9.637,-3.173
9.120821,0.196,-9.665,-3.019
9.130825,0.157,-9.651,-3.096
9.140829,0.118,-9.612,-3.089
9.150833,0.118,-9.612,-3.089
9.160837,0.118,-9.651,-3.096
9.170841,0.157,-9.637,-3.173
9.180845,0.118,-9.606,-3.128
9.190849,0.157,-9.612,-3.089
9.200853,0.118,-9.644,-3.134
9.210857,0.118,-9.644,-3.134
9.220861,0.118,-9.644,-3.134
9.230865,0.118,-9.651,-3.096
9.240869,0.118,-9.644,-3.134
9.250873,0.078,-9.651,-3.096
9.260849,0.078,-9.626,-3.012
9.270825,0.078,-9.631,-3.212
9.280801,0.039,-9.612,-3.089
9.290777,0.078,-9.612,-3.089
9.300753,0.039,-9.651,-3.096
9.310729,0.039,-9.671,-2.98
9.320705,0.0,-9.651,-3.096
9.330681,0.0,-9.651,-3.096
9.340657,0.039,-9.76,-3.155
9.350633,-0.039,-9.844,-3.13
9.360609,-0.039,-9.865,-3.014
9.370585,-0.078,-9.865,-3.014
9.380561,-0.039,-9.801,-2.923
9.390537,-0.039,-9.692,-2.864
9.400496,-0.078,-9.59,-2.766
9.410455,-0.078,-9.596,-2.728
9.420414,-0.039,-9.578,-2.605
9.430373,-0.039,-9.506,-2.791
9.440332,-0.039,-9.558,-2.721
9.450291,0.0,-9.603,-2.689
9.46025,0.0,-9.681,-2.703
9.470209,-0.039,-9.681,-2.703
9.480168,0.0,-9.706,-2.787
9.490127,-0.039,-9.719,-2.71
9.500086,-0.039,-9.712,-2.748
9.510045,0.0,-9.79,-2.762
9.520004,0.039,-9.821,-2.807
9.529972,0.0,-9.84,-2.93
9.53994,0.0,-9.833,-2.969
9.549908,0.0,-9.885,-2.898
9.559876,0.0,-9.924,-2.905
9.569844,0.0,-9.937,-2.828
9.579812,0.039,-9.962,-2.912
9.58978,0.039,-9.981,-3.034
9.599748,0.078,-9.949,-2.989
9.609716,0.039,-9.949,-2.989
9.619684,0.078,-9.833,-2.969
9.629652,0.039,-9.724,-2.91
9.63962,0.039,-9.678,-2.941
9.649588,0.039,-9.633,-2.973
9.659556,0.078,-9.594,-2.966
9.669524,0.039,-9.556,-2.96
9.679478,0.039,-9.478,-2.946
9.689432,-0.039,-9.458,-3.062
9.699386,0.0,-9.478,-2.946
9.70934,0.0,-9.44,-2.939
9.719294,-0.039,-9.472,-2.985
9.729248,-0.039,-9.472,-2.985
9.739202,-0.078,-9.458,-3.062
9.749156,-0.078,-9.497,-3.069
9.75911,-0.118,-9.549,-2.998
9.769064,-0.118,-9.549,-2.998
9.779018,-0.118,-9.556,-2.96
9.788972,-0.118,-9.562,-2.921
9.798926,-0.118,-9.594,-2.966
9.80888,-0.118,-9.601,-2.928
9.818825,-0.157,-9.64,-2.935
9.82877,-0.157,-9.667,-2.78
9.838715,-0.118,-9.619,-3.05
9.84866,-0.118,-9.685,-2.903
9.858605,-0.157,-9.685,-2.903
9.86855,-0.157,-9.667,-2.78
9.878495,-0.118,-9.744,-2.794
9.88844,-0.157,-9.699,-2.825
9.898385,-0.157,-9.724,-2.91
9.90833,-0.157,-9.737,-2.832
9.918275,-0.157,-9.751,-2.755
9.92822,-0.157,-9.758,-2.716
9.938165,-0.118,-9.737,-2.832
9.948106,-0.118,-9.796,-2.723
9.958047,-0.196,-9.785,-2.562
9.967988,-0.196,-9.785,-2.562
9.977929,-0.196,-9.733,-2.632
9.98787,-0.196,-9.771,-2.639
9.997811,-0.235,-9.733,-2.632
10.007752,-0.235,-9.694,-2.625
10.017693,-0.235,-9.753,-2.516
10.027634,-0.196,-9.785,-2.562
10.037575,-0.235,-9.746,-2.555
10.047516,-0.235,-9.792,-2.523
10.057457,-0.275,-9.837,-2.491
10.067398,-0.275,-9.883,-2.46
10.077299,-0.275,-9.805,-2.446
10.0872,-0.275,-9.865,-2.337
10.097101,-0.235,-9.858,-2.375
10.107002,-0.235,-9.871,-2.298
10.116903,-0.275,-9.903,-2.344
10.126804,-0.235,-9.878,-2.26
10.136705,-0.235,-9.949,-2.312
10.146606,-0.235,-9.903,-2.344
10.156507,-0.275,-9.878,-2.26
10.166408,-0.275,-9.871,-2.298
10.176309,-0.314,-9.917,-2.266
10.18621,-0.314,-9.91,-2.305
10.196111,-0.314,-9.878,-2.26
10.206012,-0.314,-9.917,-2.266
10.215913,-0.314,-9.924,-2.228
10.225814,-0.314,-9.917,-2.266
10.235673,-0.314,-9.885,-2.221
10.245532,-0.275,-9.899,-2.144
10.255391,-0.314,-9.899,-2.144
10.26525,-0.275,-9.917,-2.266
10.275109,-0.275,-9.91,-2.305
10.284968,-0.235,-9.91,-2.305
10.294827,-0.235,-9.903,-2.344
10.304686,-0.235,-9.892,-2.182
10.314545,-0.196,-9.878,-2.26
10.324404,-0.235,-9.871,-2.298
10.334263,-0.235,-9.885,-2.221
10.344122,-0.235,-9.885,-2.221
10.353981,-0.235,-9.871,-2.298
10.363811,-0.235,-9.846,-2.214
10.373641,-0.314,-9.853,-2.176
10.383471,-0.275,-9.808,-2.207
10.393301,-0.314,-9.846,-2.214
10.403131,-0.275,-9.878,-2.26
10.412961,-0.235,-9.885,-2.221
10.422791,-0.235,-9.924,-2.228
10.432621,-0.275,-9.924,-2.228
10.442451,-0.235,-9.892,-2.182
10.452281,-0.275,-9.885,-2.221
10.462111,-0.275,-9.892,-2.182
10.471941,-0.275,-9.892,-2.182
10.481771,-0.275,-9.892,-2.182
10.491611,-0.314,-9.871,-2.298
10.501451,-0.314,-9.924,-2.228
10.511291,-0.275,-9.924,-2.228
10.521131,-0.275,-9.846,-2.214
10.530971,-0.235,-9.846,-2.214
10.540811,-0.235,-9.892,-2.182
10.550651,-0.275,-9.846,-2.214
10.560491,-0.235,-9.846,-2.214
10.570331,-0.275,-9.878,-2.26
10.580171,-0.235,-9.846,-2.214
10.590011,-0.235,-9.846,-2.214
10.599851,-0.235,-9.846,-2.214
10.609691,-0.275,-9.885,-2.221
10.619508,-0.314,-9.878,-2.26
10.629325,-0.275,-9.867,-2.098
10.639142,-0.275,-9.819,-2.369
10.648959,-0.275,-9.885,-2.221
10.658776,-0.235,-9.84,-2.253
10.668593,-0.275,-9.853,-2.176
10.67841,-0.275,-9.846,-2.214
10.688227,-0.275,-9.808,-2.207
10.698044,-0.275,-9.853,-2.176
10.707861,-0.275,-9.86,-2.137
10.717678,-0.275,-9.846,-2.214
10.727495,-0.275,-9.833,-2.291
10.737312,-0.275,-9.853,-2.176
10.747129,-0.314,-9.867,-2.098
10.756944,-0.314,-9.853,-2.176
10.766759,-0.314,-9.846,-2.214
10.776574,-0.314,-9.885,-2.221
10.786389,-0.275,-9.833,-2.291
10.796204,-0.314,-9.878,-2.26
10.806019,-0.275,-9.878,-2.26
10.815834,-0.314,-9.878,-2.26
10.825649,-0.275,-9.84,-2.253
10.835464,-0.275,-9.833,-2.291
10.845279,-0.314,-9.878,-2.26
10.855094,-0.314,-9.871,-2.298
10.864909,-0.314,-9.833,-2.291
10.874724,-0.275,-9.878,-2.26
10.884549,-0.275,-9.871,-2.298
10.894374,-0.275,-9.885,-2.221
10.904199,-0.275,-9.871,-2.298
10.914024,-0.275,-9.853,-2.176
10.923849,-0.275,-9.833,-2.291
10.933674,-0.275,-9.885,-2.221
10.943499,-0.275,-9.878,-2.26
10.953324,-0.235,-9.885,-2.221
10.963149,-0.275,-9.878,-2.26
10.972974,-0.235,-9.885,-2.221
10.982799,-0.275,-9.826,-2.33
10.992624,-0.275,-9.878,-2.26
11.002449,-0.275,-9.84,-2.253
11.012274,-0.235,-9.84,-2.253
11.022125,-0.235,-9.865,-2.337
11.031976,-0.314,-9.917,-2.266
11.041827,-0.275,-9.885,-2.221
11.051678,-0.235,-9.84,-2.253
11.061529,-0.275,-9.812,-2.407
11.07138,-0.275,-9.787,-2.323
11.081231,-0.235,-9.833,-2.291
11.091082,-0.235,-9.826,-2.33
11.100933,-0.235,-9.833,-2.291
11.110784,-0.275,-9.851,-2.414
11.120635,-0.275,-9.865,-2.337
11.130486,-0.235,-9.858,-2.375
11.140374,-0.196,-9.867,-2.098
11.150262,-0.196,-9.808,-2.207
11.16015,-0.196,-9.808,-2.207
11.170038,-0.275,-9.808,-2.207
11.179926,-0.314,-9.808,-2.207
11.189814,-0.314,-9.755,-2.278
11.199702,-0.275,-9.749,-2.316
11.20959,-0.314,-9.787,-2.323
11.219478,-0.353,-9.794,-2.285
11.229366,-0.353,-9.801,-2.246
11.239254,-0.353,-9.787,-2.323
11.249142,-0.353,-9.833,-2.291
11.25903,-0.353,-9.794,-2.285
11.268934,-0.314,-9.84,-2.253
11.278838,-0.314,-9.867,-2.098
11.288742,-0.314,-9.819,-2.369
11.298646,-0.275,-9.812,-2.407
11.30855,-0.275,-9.819,-2.369
11.318454,-0.275,-9.833,-2.291
11.328358,-0.275,-9.794,-2.285
11.338262,-0.235,-9.819,-2.369
11.348166,-0.275,-9.833,-2.291
11.35807,-0.275,-9.826,-2.33
11.367974,-0.275,-9.787,-2.323
11.377878,-0.275,-9.794,-2.285
11.387782,-0.275,-9.774,-2.4
11.397686,-0.314,-9.794,-2.285
11.407631,-0.314,-9.846,-2.214
11.417576,-0.314,-9.805,-2.446
11.427521,-0.314,-9.833,-2.291
11.437466,-0.275,-9.819,-2.369
11.447411,-0.314,-9.812,-2.407
11.457356,-0.314,-9.833,-2.291
11.467301,-0.353,-9.749,-2.316
11.477246,-0.314,-9.749,-2.316
11.487191,-0.314,-9.808,-2.207
11.497136,-0.353,-9.833,-2.291
11.507081,-0.353,-9.78,-2.362
11.517026,-0.353,-9.794,-2.285
11.526971,-0.314,-9.826,-2.33
11.536959,-0.314,-9.819,-2.369
11.546947,-0.314,-9.833,-2.291
11.556935,-0.392,-9.851,-2.414
11.566923,-0.353,-9.878,-2.26
11.576911,-0.314,-9.871,-2.298
11.586899,-0.314,-9.819,-2.369
11.596887,-0.314,-9.84,-2.253
11.606875,-0.314,-9.84,-2.253
11.616863,-0.353,-9.865,-2.337
11.626851,-0.275,-9.84,-2.253
11.636839,-0.275,-9.871,-2.298
11.646827,-0.275,-9.833,-2.291
11.656815,-0.314,-9.84,-2.253
11.666817,-0.314,-9.846,-2.214
11.676819,-0.314,-9.871,-2.298
11.686821,-0.314,-9.865,-2.337
11.696823,-0.314,-9.846,-2.214
11.706825,-0.353,-9.846,-2.214
11.716827,-0.353,-9.871,-2.298
11.726829,-0.314,-9.885,-2.221
11.736831,-0.314,-9.846,-2.214
11.746833,-0.314,-9.833,-2.291
11.756835,-0.314,-9.78,-2.362
11.766837,-0.275,-9.846,-2.214
11.776839,-0.314,-9.826,-2.33
11.786841,-0.314,-9.871,-2.298
11.796843,-0.353,-9.917,-2.266
11.806844,-0.314,-9.899,-2.144
11.816845,-0.275,-9.826,-2.33
11.826846,-0.275,-9.878,-2.26
11.836847,-0.275,-9.833,-2.291
11.846848,-0.235,-9.853,-2.176
11.856849,-0.275,-9.833,-2.291
11.86685,-0.314,-9.84,-2.253
11.876851,-0.314,-9.878,-2.26
11.886852,-0.275,-9.865,-2.337
11.896853,-0.275,-9.878,-2.26
11.906854,-0.314,-9.865,-2.337
11.916855,-0.275,-9.865,-2.337
11.926856,-0.275,-9.865,-2.337
11.936876,-0.314,-9.785,-2.562
11.946896,-0.275,-9.846,-2.214
11.956916,-0.314,-9.826,-2.33
11.966936,-0.314,-9.84,-2.253
11.976956,-0.235,-9.794,-2.285
11.986976,-0.275,-9.826,-2.33
11.996996,-0.275,-9.826,-2.33
12.007016,-0.353,-9.78,-2.362
12.017036,-0.353,-9.808,-2.207
12.027056,-0.314,-9.78,-2.362
12.037076,-0.353,-9.801,-2.246
12.047096,-0.314,-9.808,-2.207
12.057116,-0.353,-9.787,-2.323
12.067143,-0.314,-9.853,-2.176
12.07717,-0.314,-9.84,-2.253
12.087197,-0.353,-9.84,-2.253
12.097224,-0.353,-9.871,-2.298
12.107251,-0.392,-9.84,-2.253
12.117278,-0.353,-9.865,-2.337
12.127305,-0.353,-9.91,-2.305
12.137332,-0.314,-9.917,-2.266
12.147359,-0.314,-9.91,-2.305
12.157386,-0.314,-9.91,-2.305
12.167413,-0.275,-9.91,-2.305
12.17744,-0.275,-9.871,-2.298
12.187467,-0.235,-9.826,-2.33
12.197494,-0.275,-9.84,-2.253
12.207534,-0.314,-9.819,-2.369
12.217574,-0.314,-9.833,-2.291
12.227614,-0.275,-9.794,-2.285
12.237654,-0.314,-9.826,-2.33
12.247694,-0.275,-9.833,-2.291
12.257734,-0.314,-9.826,-2.33
12.267774,-0.314,-9.826,-2.33
12.277814,-0.314,-9.833,-2.291
12.287854,-0.314,-9.794,-2.285
12.297894,-0.353,-9.794,-2.285
12.307934,-0.314,-9.794,-2.285
12.317974,-0.314,-9.826,-2.33
12.328014,-0.314,-9.794,-2.285
12.338026,-0.392,-9.826,-2.33
12.348038,-0.353,-9.84,-2.253
12.35805,-0.353,-9.846,-2.214
12.368062,-0.353,-9.871,-2.298
12.378074,-0.353,-9.84,-2.253
12.388086,-0.314,-9.833,-2.291
12.398098,-0.275,-9.871,-2.298
12.40811,-0.275,-9.871,-2.298
12.418122,-0.314,-9.878,-2.26
12.428134,-0.275,-9.871,-2.298
12.438146,-0.275,-9.833,-2.291
12.448158,-0.275,-9.826,-2.33
12.45817,-0.235,-9.885,-2.221
12.468182,-0.275,-9.885,-2.221
12.478168,-0.314,-9.878,-2.26
12.488154,-0.275,-9.84,-2.253
12.49814,-0.275,-9.801,-2.246
12.508126,-0.314,-9.794,-2.285
12.518112,-0.314,-9.833,-2.291
12.528098,-0.314,-9.833,-2.291
12.538084,-0.314,-9.801,-2.246
12.54807,-0.314,-9.833,-2.291
12.558056,-0.275,-9.812,-2.407
12.568042,-0.275,-9.826,-2.33
12.578028,-0.275,-9.826,-2.33
12.588014,-0.275,-9.819,-2.369
12.598,-0.275,-9.865,-2.337
12.60797,-0.275,-9.833,-2.291
12.61794,-0.275,-9.792,-2.523
12.62791,-0.275,-9.865,-2.337
12.63788,-0.275,-9.865,-2.337
12.64785,-0.235,-9.819,-2.369
12.65782,-0.235,-9.819,-2.369
12.66779,-0.275,-9.871,-2.298
12.67776,-0.275,-9.865,-2.337
12.68773,-0.275,-9.819,-2.369
12.6977,-0.314,-9.858,-2.375
12.70767,-0.314,-9.858,-2.375
12.71764,-0.275,-9.878,-2.26
12.72761,-0.314,-9.91,-2.305
12.737547,-0.314,-9.819,-2.369
12.747484,-0.275,-9.826,-2.33
12.757421,-0.235,-9.84,-2.253
12.767358,-0.275,-9.826,-2.33
12.777295,-0.275,-9.858,-2.375
12.787232,-0.275,-9.871,-2.298
12.797169,-0.275,-9.826,-2.33
12.807106,-0.275,-9.826,-2.33
12.817043,-0.275,-9.819,-2.369
12.82698,-0.314,-9.833,-2.291
12.836917,-0.275,-9.858,-2.375
12.846854,-0.314,-9.871,-2.298
12.856791,-0.353,-9.819,-2.369
12.866728,-0.314,-9.794,-2.285
12.876665,-0.314,-9.801,-2.246
12.886602,-0.392,-9.801,-2.246
12.896532,-0.431,-9.826,-2.33
12.906462,-0.353,-9.826,-2.33
12.916392,-0.392,-9.846,-2.214
12.926322,-0.353,-9.84,-2.253
12.936252,-0.314,-9.871,-2.298
12.946182,-0.353,-9.871,-2.298
12.956112,-0.353,-9.865,-2.337
12.966042,-0.353,-9.878,-2.26
12.975972,-0.353,-9.833,-2.291
12.985902,-0.275,-9.833,-2.291
12.995832,-0.275,-9.826,-2.33
13.005762,-0.235,-9.767,-2.439
13.015692,-0.275,-9.801,-2.246
13.025622,-0.314,-9.84,-2.253
13.035552,-0.314,-9.826,-2.33
13.045482,-0.314,-9.801,-2.246
13.055412,-0.275,-9.794,-2.285
13.065342,-0.275,-9.833,-2.291
13.075272,-0.314,-9.78,-2.362
13.085202,-0.314,-9.787,-2.323
13.095132,-0.353,-9.819,-2.369
13.105062,-0.314,-9.826,-2.33
13.114992,-0.353,-9.787,-2.323
13.124922,-0.353,-9.801,-2.246
13.134818,-0.353,-9.753,-2.516
13.144714,-0.353,-9.78,-2.362
13.15461,-0.353,-9.78,-2.362
13.164506,-0.353,-9.742,-2.355
13.174402,-0.353,-9.794,-2.285
13.184298,-0.353,-9.774,-2.4
13.194194,-0.392,-9.794,-2.285
13.20409,-0.353,-9.794,-2.285
13.213986,-0.314,-9.833,-2.291
13.223882,-0.353,-9.833,-2.291
13.233778,-0.314,-9.878,-2.26
13.243674,-0.353,-9.885,-2.221
13.25357,-0.353,-9.826,-2.33
13.263466,-0.314,-9.826,-2.33
13.273338,-0.314,-9.799,-2.485
13.28321,-0.314,-9.84,-2.253
13.293082,-0.314,-9.865,-2.337
13.302954,-0.314,-9.878,-2.26
13.312826,-0.353,-9.865,-2.337
13.322698,-0.314,-9.871,-2.298
13.33257,-0.353,-9.84,-2.253
13.342442,-0.314,-9.84,-2.253
13.352314,-0.314,-9.826,-2.33
13.362186,-0.314,-9.84,-2.253
13.372058,-0.314,-9.846,-2.214
13.38193,-0.314,-9.84,-2.253
13.391802,-0.314,-9.833,-2.291
13.401674,-0.353,-9.871,-2.298
13.411546,-0.275,-9.912,-2.066
13.421418,-0.314,-9.837,-2.491
13.43129,-0.314,-9.84,-2.253
13.441162,-0.275,-9.878,-2.26
13.451034,-0.314,-9.819,-2.369
13.460906,-0.314,-9.846,-2.214
13.470778,-0.314,-9.84,-2.253
13.48065,-0.314,-9.801,-2.246
13.490522,-0.314,-9.878,-2.26
13.500394,-0.314,-9.826,-2.33
13.510266,-0.314,-9.833,-2.291
13.520138,-0.353,-9.833,-2.291
13.53001,-0.353,-9.833,-2.291
13.539882,-0.314,-9.833,-2.291
13.549739,-0.314,-9.767,-2.439
13.559596,-0.314,-9.808,-2.207
13.569453,-0.314,-9.84,-2.253
13.57931,-0.314,-9.833,-2.291
13.589167,-0.314,-9.84,-2.253
13.599024,-0.353,-9.833,-2.291
13.608881,-0.314,-9.826,-2.33
13.618738,-0.275,-9.819,-2.369
13.628595,-0.275,-9.819,-2.369
13.638452,-0.235,-9.826,-2.33
13.648309,-0.235,-9.826,-2.33
13.658166,-0.235,-9.787,-2.323
13.668023,-0.275,-9.833,-2.291
13.677917,-0.314,-9.805,-2.446
13.687811,-0.353,-9.794,-2.285
13.697705,-0.353,-9.78,-2.362
13.707599,-0.353,-9.794,-2.285
13.717493,-0.353,-9.846,-2.214
13.727387,-0.353,-9.801,-2.246
13.737281,-0.353,-9.826,-2.33
13.747175,-0.392,-9.833,-2.291
13.757069,-0.353,-9.826,-2.33
13.766963,-0.392,-9.833,-2.291
13.776857,-0.392,-9.865,-2.337
13.786751,-0.392,-9.871,-2.298
13.796645,-0.353,-9.924,-2.228
13.806514,-0.353,-9.91,-2.305
13.816383,-0.314,-9.871,-2.298
13.826252,-0.314,-9.858,-2.375
13.836121,-0.275,-9.865,-2.337
13.84599,-0.235,-9.84,-2.253
13.855859,-0.275,-9.84,-2.253
13.865728,-0.275,-9.858,-2.375
13.875597,-0.275,-9.812,-2.407
13.885466,-0.314,-9.819,-2.369
13.895335,-0.314,-9.794,-2.285
13.905204,-0.353,-9.833,-2.291
13.915073,-0.353,-9.871,-2.298
13.924942,-0.353,-9.78,-2.362
13.934811,-0.314,-9.819,-2.369
13.944667,-0.275,-9.819,-2.369
13.954523,-0.353,-9.819,-2.369
13.964379,-0.353,-9.801,-2.246
13.974235,-0.353,-9.794,-2.285
13.984091,-0.353,-9.78,-2.362
13.993947,-0.314,-9.787,-2.323
14.003803,-0.314,-9.819,-2.369
14.013659,-0.275,-9.819,-2.369
14.023515,-0.314,-9.819,-2.369
14.033371,-0.275,-9.819,-2.369
14.043227,-0.275,-9.794,-2.285
14.053083,-0.275,-9.826,-2.33
14.062939,-0.275,-9.871,-2.298
14.072795,-0.275,-9.846,-2.214
14.082651,-0.314,-9.84,-2.253
14.092507,-0.314,-9.774,-2.4
14.102363,-0.314,-9.833,-2.291
14.112219,-0.314,-9.826,-2.33
14.122075,-0.314,-9.84,-2.253
14.131931,-0.275,-9.871,-2.298
14.141787,-0.314,-9.858,-2.375
14.151643,-0.275,-9.865,-2.337
14.161499,-0.275,-9.826,-2.33
14.171355,-0.275,-9.871,-2.298
14.181211,-0.314,-9.833,-2.291
14.191067,-0.314,-9.84,-2.253
14.200914,-0.353,-9.819,-2.369
14.210761,-0.353,-9.826,-2.33
14.220608,-0.314,-9.826,-2.33
14.230455,-0.314,-9.826,-2.33
14.240302,-0.314,-9.826,-2.33
14.250149,-0.314,-9.787,-2.323
14.259996,-0.314,-9.812,-2.407
14.269843,-0.275,-9.84,-2.253
14.27969,-0.235,-9.833,-2.291
14.289537,-0.235,-9.826,-2.33
14.299384,-0.275,-9.826,-2.33
14.309231,-0.314,-9.767,-2.439
14.319078,-0.275,-9.819,-2.369
14.328925,-0.275,-9.826,-2.33
14.338778,-0.275,-9.824,-2.569
14.348631,-0.275,-9.871,-2.298
14.358484,-0.275,-9.878,-2.26
14.368337,-0.275,-9.871,-2.298
14.37819,-0.275,-9.865,-2.337
14.388043,-0.314,-9.858,-2.375
14.397896,-0.314,-9.878,-2.26
14.407749,-0.314,-9.858,-2.375
14.417602,-0.353,-9.819,-2.369
14.427455,-0.314,-9.78,-2.362
14.437308,-0.275,-9.833,-2.291
14.447161,-0.275,-9.801,-2.246
14.457014,-0.235,-9.826,-2.33
14.466886,-0.275,-9.805,-2.446
14.476758,-0.275,-9.833,-2.291
14.48663,-0.235,-9.812,-2.407
14.496502,-0.275,-9.78,-2.362
14.506374,-0.314,-9.78,-2.362
14.516246,-0.314,-9.78,-2.362
14.526118,-0.314,-9.755,-2.278
14.53599,-0.392,-9.787,-2.323
14.545862,-0.392,-9.78,-2.362
14.555734,-0.392,-9.794,-2.285
14.565606,-0.392,-9.787,-2.323
14.575478,-0.314,-9.833,-2.291
14.58535,-0.314,-9.833,-2.291
14.595245,-0.314,-9.819,-2.369
14.60514,-0.314,-9.878,-2.26
14.615035,-0.314,-9.871,-2.298
14.62493,-0.275,-9.885,-2.221
14.634825,-0.275,-9.871,-2.298
14.64472,-0.275,-9.865,-2.337
14.654615,-0.275,-9.826,-2.33
14.66451,-0.275,-9.865,-2.337
14.674405,-0.275,-9.826,-2.33
14.6843,-0.235,-9.826,-2.33
14.694195,-0.275,-9.865,-2.337
14.70409,-0.314,-9.865,-2.337
14.713985,-0.314,-9.858,-2.375
14.72388,-0.314,-9.833,-2.291
14.733812,-0.314,-9.826,-2.33
14.743744,-0.353,-9.885,-2.221
14.753676,-0.353,-9.833,-2.291
14.763608,-0.353,-9.794,-2.285
14.77354,-0.353,-9.833,-2.291
14.783472,-0.314,-9.826,-2.33
14.793404,-0.353,-9.878,-2.26
14.803336,-0.353,-9.833,-2.291
14.813268,-0.353,-9.833,-2.291
14.8232,-0.353,-9.801,-2.246
14.833132,-0.353,-9.826,-2.33
14.843064,-0.353,-9.846,-2.214
14.853036,-0.392,-9.819,-2.369
14.863008,-0.353,-9.819,-2.369
14.87298,-0.353,-9.885,-2.221
14.882952,-0.353,-9.865,-2.337
14.892924,-0.314,-9.878,-2.26
14.902896,-0.353,-9.871,-2.298
14.912868,-0.314,-9.878,-2.26
14.92284,-0.314,-9.833,-2.291
14.932812,-0.314,-9.826,-2.33
14.942784,-0.314,-9.846,-2.214
14.952756,-0.314,-9.84,-2.253
14.962728,-0.314,-9.84,-2.253
14.9727,-0.314,-9.787,-2.323
14.982688,-0.392,-9.794,-2.285
14.992676,-0.392,-9.84,-2.253
15.002664,-0.392,-9.794,-2.285
15.012652,-0.392,-9.787,-2.323
15.02264,-0.392,-9.808,-2.207
15.032628,-0.392,-9.826,-2.33
15.042616,-0.353,-9.826,-2.33
15.052604,-0.353,-9.84,-2.253
15.062592,-0.392,-9.78,-2.362
15.07258,-0.353,-9.749,-2.316
15.082568,-0.314,-9.801,-2.246
15.092556,-0.314,-9.819,-2.369
15.102544,-0.314,-9.826,-2.33
15.112532,-0.314,-9.819,-2.369
15.122536,-0.314,-9.84,-2.253
15.13254,-0.275,-9.84,-2.253
15.142544,-0.314,-9.826,-2.33
15.152548,-0.353,-9.833,-2.291
15.162552,-0.314,-9.826,-2.33
15.172556,-0.353,-9.878,-2.26
15.18256,-0.353,-9.871,-2.298
15.192564,-0.314,-9.865,-2.337
15.202568,-0.353,-9.858,-2.375
15.212572,-0.353,-9.819,-2.369
15.222576,-0.392,-9.826,-2.33
15.23258,-0.392,-9.846,-2.214
15.242584,-0.392,-9.826,-2.33
15.252588,-0.353,-9.846,-2.214
15.262607,-0.353,-9.815,-2.169
15.272626,-0.392,-9.826,-2.33
15.282645,-0.314,-9.846,-2.214
15.292664,-0.353,-9.826,-2.33
15.302683,-0.353,-9.833,-2.291
15.312702,-0.314,-9.865,-2.337
15.322721,-0.275,-9.896,-2.382
15.33274,-0.275,-9.865,-2.337
15.342759,-0.314,-9.871,-2.298
15.352778,-0.353,-9.826,-2.33
15.362797,-0.353,-9.801,-2.246
15.372816,-0.353,-9.787,-2.323
15.382835,-0.392,-9.794,-2.285
15.392872,-0.392,-9.821,-2.13
15.402909,-0.353,-9.821,-2.13
15.412946,-0.392,-9.801,-2.246
15.422983,-0.353,-9.84,-2.253
15.43302,-0.353,-9.878,-2.26
15.443057,-0.392,-9.878,-2.26
15.453094,-0.392,-9.833,-2.291
15.463131,-0.392,-9.878,-2.26
15.473168,-0.392,-9.903,-2.344
15.483205,-0.314,-9.878,-2.26
15.493242,-0.314,-9.91,-2.305
15.503279,-0.314,-9.865,-2.337
15.513316,-0.314,-9.833,-2.291
15.523367,-0.392,-9.878,-2.26
15.533418,-0.314,-9.833,-2.291
15.543469,-0.353,-9.84,-2.253
15.55352,-0.314,-9.826,-2.33
15.563571,-0.353,-9.865,-2.337
15.573622,-0.314,-9.871,-2.298
15.583673,-0.353,-9.833,-2.291
15.593724,-0.392,-9.833,-2.291
15.603775,-0.314,-9.819,-2.369
15.613826,-0.353,-9.787,-2.323
15.623877,-0.392,-9.833,-2.291
15.633928,-0.392,-9.787,-2.323
15.643979,-0.353,-9.808,-2.207
15.65403,-0.392,-9.794,-2.285
15.664081,-0.392,-9.755,-2.278
15.674126,-0.392,-9.755,-2.278
15.684171,-0.353,-9.755,-2.278
15.694216,-0.392,-9.721,-2.471
15.704261,-0.353,-9.794,-2.285
15.714306,-0.353,-9.794,-2.285
15.724351,-0.392,-9.833,-2.291
15.734396,-0.353,-9.833,-2.291
15.744441,-0.392,-9.826,-2.33
15.754486,-0.353,-9.833,-2.291
15.764531,-0.353,-9.833,-2.291
15.774576,-0.353,-9.84,-2.253
15.784621,-0.353,-9.878,-2.26
15.794666,-0.314,-9.885,-2.221
15.804666,-0.392,-9.851,-2.414
15.814666,-0.392,-9.871,-2.298
15.824666,-0.392,-9.858,-2.375
15.834666,-0.392,-9.826,-2.33
15.844666,-0.392,-9.826,-2.33
15.854666,-0.431,-9.833,-2.291
15.864666,-0.392,-9.787,-2.323
15.874666,-0.392,-9.794,-2.285
15.884666,-0.392,-9.833,-2.291
15.894666,-0.392,-9.878,-2.26
15.904666,-0.392,-9.865,-2.337
15.914666,-0.392,-9.871,-2.298
15.924666,-0.353,-9.885,-2.221
15.934666,-0.353,-9.858,-2.375
15.944661,-0.353,-9.858,-2.375
15.954656,-0.314,-9.912,-2.066
15.964651,-0.314,-9.871,-2.298
15.974646,-0.353,-9.871,-2.298
15.984641,-0.353,-9.885,-2.221
15.994636,-0.314,-9.84,-2.253
16.004631,-0.353,-9.878,-2.26
16.014626,-0.353,-9.84,-2.253
16.024621,-0.353,-9.871,-2.298
16.034616,-0.353,-9.871,-2.298
16.044611,-0.353,-9.858,-2.375
16.054606,-0.392,-9.871,-2.298
16.064601,-0.392,-9.871,-2.298
16.074542,-0.392,-9.846,-2.214
16.084483,-0.392,-9.805,-2.446
16.094424,-0.353,-9.833,-2.291
16.104365,-0.353,-9.826,-2.33
16.114306,-0.392,-9.826,-2.33
16.124247,-0.392,-9.812,-2.407
16.134188,-0.353,-9.801,-2.246
16.144129,-0.314,-9.794,-2.285
16.15407,-0.314,-9.833,-2.291
16.164011,-0.353,-9.826,-2.33
16.173952,-0.353,-9.826,-2.33
16.183893,-0.353,-9.833,-2.291
16.193834,-0.275,-9.812,-2.407
16.203775,-0.314,-9.812,-2.407
16.213628,-0.275,-9.801,-2.246
16.223481,-0.275,-9.801,-2.246
16.233334,-0.314,-9.742,-2.355
16.243187,-0.353,-9.794,-2.285
16.25304,-0.392,-9.787,-2.323
16.262893,-0.392,-9.84,-2.253
16.272746,-0.431,-9.833,-2.291
16.282599,-0.392,-9.826,-2.33
16.292452,-0.353,-9.84,-2.253
16.302305,-0.392,-9.819,-2.369
16.312158,-0.314,-9.871,-2.298
16.322011,-0.392,-9.871,-2.298
16.331864,-0.392,-9.865,-2.337
16.341717,-0.353,-9.833,-2.291
16.351491,-0.353,-9.851,-2.414
16.361265,-0.392,-9.865,-2.337
16.371039,-0.353,-9.851,-2.414
16.380813,-0.314,-9.833,-2.291
16.390587,-0.314,-9.78,-2.362
16.400361,-0.314,-9.794,-2.285
16.410135,-0.353,-9.787,-2.323
16.419909,-0.353,-9.787,-2.323
16.429683,-0.392,-9.833,-2.291
16.439457,-0.392,-9.826,-2.33
16.449231,-0.392,-9.826,-2.33
16.459005,-0.431,-9.819,-2.369
16.468779,-0.431,-9.78,-2.362
16.478502,-0.431,-9.78,-2.362
16.488225,-0.431,-9.787,-2.323
16.497948,-0.431,-9.819,-2.369
16.507671,-0.392,-9.767,-2.439
16.517394,-0.431,-9.774,-2.4
16.527117,-0.392,-9.78,-2.362
16.53684,-0.392,-9.78,-2.362
16.546563,-0.353,-9.826,-2.33
16.556286,-0.353,-9.774,-2.4
16.566009,-0.392,-9.805,-2.446
16.575732,-0.392,-9.794,-2.285
16.585455,-0.353,-9.801,-2.246
16.595178,-0.353,-9.812,-2.407
16.604898,-0.353,-9.78,-2.362
16.614618,-0.392,-9.819,-2.369
16.624338,-0.392,-9.787,-2.323
16.634058,-0.392,-9.819,-2.369
16.643778,-0.353,-9.833,-2.291
16.653498,-0.353,-9.812,-2.407
16.663218,-0.353,-9.805,-2.446
16.672938,-0.392,-9.78,-2.362
16.682658,-0.353,-9.78,-2.362
16.692378,-0.353,-9.774,-2.4
16.702098,-0.392,-9.78,-2.362
16.711818,-0.431,-9.819,-2.369
16.721538,-0.431,-9.819,-2.369
16.731258,-0.392,-9.819,-2.369
16.740942,-0.392,-9.826,-2.33
16.750626,-0.431,-9.844,-2.453
16.76031,-0.431,-9.805,-2.446
16.769994,-0.392,-9.826,-2.33
16.779678,-0.431,-9.819,-2.369
16.789362,-0.353,-9.805,-2.446
16.799046,-0.392,-9.78,-2.362
16.80873,-0.353,-9.774,-2.4
16.818414,-0.392,-9.826,-2.33
16.828098,-0.353,-9.78,-2.362
16.837782,-0.353,-9.819,-2.369
16.847466,-0.353,-9.819,-2.369
16.85715,-0.314,-9.826,-2.33
16.866823,-0.353,-9.826,-2.33
16.876496,-0.431,-9.819,-2.369
16.886169,-0.392,-9.826,-2.33
16.895842,-0.392,-9.865,-2.337
16.905515,-0.392,-9.812,-2.407
16.915188,-0.353,-9.858,-2.375
16.924861,-0.353,-9.858,-2.375
16.934534,-0.353,-9.826,-2.33
16.944207,-0.353,-9.787,-2.323
16.95388,-0.353,-9.774,-2.4
16.963553,-0.353,-9.78,-2.362
16.973226,-0.353,-9.805,-2.446
16.982899,-0.314,-9.78,-2.362
16.992572,-0.314,-9.833,-2.291
17.002245,-0.314,-9.805,-2.446
17.011919,-0.353,-9.819,-2.369
17.021593,-0.314,-9.871,-2.298
17.031267,-0.314,-9.826,-2.33
17.040941,-0.275,-9.819,-2.369
17.050615,-0.314,-9.787,-2.323
17.060289,-0.314,-9.787,-2.323
17.069963,-0.353,-9.78,-2.362
17.079637,-0.353,-9.78,-2.362
17.089311,-0.392,-9.78,-2.362
17.098985,-0.353,-9.819,-2.369
17.108659,-0.392,-9.794,-2.285
17.118333,-0.392,-9.787,-2.323
17.12803,-0.392,-9.826,-2.33
17.137727,-0.392,-9.84,-2.253
17.147424,-0.392,-9.833,-2.291
17.157121,-0.392,-9.819,-2.369
17.166818,-0.392,-9.812,-2.407
17.176515,-0.392,-9.826,-2.33
17.186212,-0.314,-9.826,-2.33
17.195909,-0.314,-9.826,-2.33
17.205606,-0.353,-9.826,-2.33
17.215303,-0.353,-9.819,-2.369
17.225,-0.314,-9.851,-2.414
17.234697,-0.353,-9.851,-2.414
17.244394,-0.353,-9.819,-2.369
17.254135,-0.353,-9.774,-2.4
17.263876,-0.353,-9.787,-2.323
17.273617,-0.392,-9.826,-2.33
17.283358,-0.392,-9.819,-2.369
17.293099,-0.392,-9.787,-2.323
17.30284,-0.392,-9.799,-2.485
17.312581,-0.392,-9.805,-2.446
17.322322,-0.431,-9.735,-2.394
17.332063,-0.431,-9.735,-2.394
17.341804,-0.392,-9.774,-2.4
17.351545,-0.431,-9.819,-2.369
17.361286,-0.431,-9.787,-2.323
17.371027,-0.431,-9.833,-2.291
17.380816,-0.431,-9.812,-2.407
17.390605,-0.431,-9.844,-2.453
17.400394,-0.431,-9.826,-2.33
17.410183,-0.431,-9.774,-2.4
17.419972,-0.431,-9.794,-2.285
17.429761,-0.431,-9.774,-2.4
17.43955,-0.392,-9.819,-2.369
17.449339,-0.392,-9.826,-2.33
17.459128,-0.392,-9.826,-2.33
17.468917,-0.392,-9.826,-2.33
17.478706,-0.431,-9.826,-2.33
17.488495,-0.431,-9.819,-2.369
17.498284,-0.353,-9.819,-2.369
17.508073,-0.392,-9.851,-2.414
17.51792,-0.392,-9.84,-2.253
17.527767,-0.392,-9.794,-2.285
17.537614,-0.392,-9.819,-2.369
17.547461,-0.392,-9.826,-2.33
17.557308,-0.431,-9.774,-2.4
17.567155,-0.392,-9.794,-2.285
17.577002,-0.431,-9.812,-2.407
17.586849,-0.392,-9.833,-2.291
17.596696,-0.392,-9.851,-2.414
17.606543,-0.353,-9.812,-2.407
17.61639,-0.353,-9.858,-2.375
17.626237,-0.353,-9.865,-2.337
17.636084,-0.314,-9.851,-2.414
17.646002,-0.314,-9.805,-2.446
17.65592,-0.314,-9.799,-2.485
17.665838,-0.314,-9.819,-2.369
17.675756,-0.353,-9.774,-2.4
17.685674,-0.353,-9.774,-2.4
17.695592,-0.353,-9.767,-2.439
17.70551,-0.314,-9.812,-2.407
17.715428,-0.353,-9.812,-2.407
17.725346,-0.314,-9.819,-2.369
17.735264,-0.314,-9.812,-2.407
17.745182,-0.314,-9.78,-2.362
17.7551,-0.392,-9.774,-2.4
17.765018,-0.392,-9.812,-2.407
17.775004,-0.353,-9.826,-2.33
17.78499,-0.392,-9.812,-2.407
17.794976,-0.392,-9.826,-2.33
17.804962,-0.353,-9.819,-2.369
17.814948,-0.353,-9.819,-2.369
17.824934,-0.353,-9.851,-2.414
17.83492,-0.353,-9.805,-2.446
17.844906,-0.314,-9.819,-2.369
17.854892,-0.314,-9.812,-2.407
17.864878,-0.314,-9.805,-2.446
17.874864,-0.275,-9.819,-2.369
17.88485,-0.314,-9.812,-2.407
17.894836,-0.353,-9.774,-2.4
17.904889,-0.353,-9.78,-2.362
17.914942,-0.353,-9.78,-2.362
17.924995,-0.353,-9.767,-2.439
17.935048,-0.314,-9.812,-2.407
17.945101,-0.353,-9.812,-2.407
17.955154,-0.392,-9.812,-2.407
17.965207,-0.392,-9.826,-2.33
17.97526,-0.392,-9.78,-2.362
17.985313,-0.392,-9.812,-2.407
17.995366,-0.431,-9.851,-2.414
18.005419,-0.392,-9.819,-2.369
18.015472,-0.353,-9.812,-2.407
18.025525,-0.353,-9.819,-2.369
18.035593,-0.314,-9.837,-2.491
18.045661,-0.275,-9.917,-2.266
18.055729,-0.314,-9.851,-2.414
18.065797,-0.275,-9.858,-2.375
18.075865,-0.235,-9.819,-2.369
18.085933,-0.275,-9.819,-2.369
18.096001,-0.275,-9.837,-2.491
18.106069,-0.314,-9.851,-2.414
18.116137,-0.314,-9.819,-2.369
18.126205,-0.275,-9.805,-2.446
18.136273,-0.353,-9.812,-2.407
18.146341,-0.314,-9.819,-2.369
18.156409,-0.353,-9.851,-2.414
18.166477,-0.353,-9.858,-2.375
18.176573,-0.353,-9.851,-2.414
18.186669,-0.275,-9.771,-2.639
18.196765,-0.353,-9.858,-2.375
18.206861,-0.353,-9.826,-2.33
18.216957,-0.353,-9.774,-2.4
18.227053,-0.392,-9.792,-2.523
18.237149,-0.392,-9.805,-2.446
18.247245,-0.353,-9.805,-2.446
18.257341,-0.392,-9.812,-2.407
18.267437,-0.392,-9.812,-2.407
18.277533,-0.392,-9.844,-2.453
18.287629,-0.353,-9.819,-2.369
18.297725,-0.353,-9.858,-2.375
18.307841,-0.392,-9.83,-2.53
18.317957,-0.353,-9.746,-2.555
18.328073,-0.392,-9.833,-2.291
18.338189,-0.431,-9.819,-2.369
18.348305,-0.353,-9.805,-2.446
18.358421,-0.353,-9.805,-2.446
18.368537,-0.353,-9.812,-2.407
18.378653,-0.392,-9.851,-2.414
18.388769,-0.392,-9.826,-2.33
18.398885,-0.431,-9.833,-2.291
18.409001,-0.392,-9.805,-2.446
18.419117,-0.431,-9.805,-2.446
18.429233,-0.392,-9.851,-2.414
18.439349,-0.353,-9.812,-2.407
18.449478,-0.353,-9.833,-2.291
18.459607,-0.353,-9.826,-2.33
18.469736,-0.353,-9.78,-2.362
18.479865,-0.392,-9.826,-2.33
18.489994,-0.392,-9.826,-2.33
18.500123,-0.353,-9.812,-2.407
18.510252,-0.353,-9.812,-2.407
18.520381,-0.353,-9.774,-2.4
18.53051,-0.353,-9.805,-2.446
18.540639,-0.353,-9.767,-2.439
18.550768,-0.314,-9.805,-2.446
18.560897,-0.353,-9.742,-2.355
18.571031,-0.353,-9.767,-2.439
18.581165,-0.314,-9.735,-2.394
18.591299,-0.353,-9.774,-2.4
18.601433,-0.314,-9.767,-2.439
18.611567,-0.314,-9.767,-2.439
18.621701,-0.314,-9.819,-2.369
18.631835,-0.353,-9.805,-2.446
18.641969,-0.314,-9.819,-2.369
18.652103,-0.314,-9.805,-2.446
18.662237,-0.314,-9.812,-2.407
18.672371,-0.353,-9.812,-2.407
18.682505,-0.314,-9.799,-2.485
18.692639,-0.353,-9.805,-2.446
18.702734,-0.353,-9.753,-2.516
18.712829,-0.314,-9.749,-2.316
18.722924,-0.353,-9.819,-2.369
18.733019,-0.314,-9.792,-2.523
18.743114,-0.314,-9.805,-2.446
18.753209,-0.275,-9.819,-2.369
18.763304,-0.275,-9.805,-2.446
18.773399,-0.275,-9.774,-2.4
18.783494,-0.314,-9.767,-2.439
18.793589,-0.314,-9.792,-2.523
18.803684,-0.392,-9.774,-2.4
18.813779,-0.392,-9.728,-2.432
18.823874,-0.392,-9.735,-2.394
18.833969,-0.353,-9.753,-2.516
18.844049,-0.392,-9.787,-2.323
18.854129,-0.431,-9.715,-2.51
18.864209,-0.353,-9.767,-2.439
18.874289,-0.392,-9.826,-2.33
18.884369,-0.353,-9.792,-2.523
18.894449,-0.353,-9.837,-2.491
18.904529,-0.353,-9.837,-2.491
18.914609,-0.353,-9.837,-2.491
18.924689,-0.314,-9.83,-2.53
18.934769,-0.314,-9.792,-2.523
18.944849,-0.275,-9.812,-2.407
18.954929,-0.275,-9.837,-2.491
18.965009,-0.275,-9.844,-2.453
18.975027,-0.275,-9.76,-2.478
18.985045,-0.314,-9.785,-2.562
18.995063,-0.275,-9.799,-2.485
19.005081,-0.314,-9.792,-2.523
19.015099,-0.314,-9.76,-2.478
19.025117,-0.314,-9.767,-2.439
19.035135,-0.314,-9.767,-2.439
19.045153,-0.314,-9.735,-2.394
19.055171,-0.314,-9.76,-2.478
19.065189,-0.353,-9.799,-2.485
19.075207,-0.353,-9.785,-2.562
19.085225,-0.353,-9.753,-2.516
19.095243,-0.314,-9.728,-2.432
19.105261,-0.392,-9.726,-2.671
19.115215,-0.314,-9.76,-2.478
19.125169,-0.314,-9.76,-2.478
19.135123,-0.353,-9.753,-2.516
19.145077,-0.353,-9.767,-2.439
19.155031,-0.314,-9.767,-2.439
19.164985,-0.314,-9.76,-2.478
19.174939,-0.314,-9.799,-2.485
19.184893,-0.314,-9.792,-2.523
19.194847,-0.314,-9.812,-2.407
19.204801,-0.314,-9.799,-2.485
19.214755,-0.314,-9.812,-2.407
19.224709,-0.314,-9.83,-2.53
19.234663,-0.314,-9.812,-2.407
19.244562,-0.275,-9.792,-2.523
19.254461,-0.275,-9.83,-2.53
19.26436,-0.314,-9.792,-2.523
19.274259,-0.314,-9.837,-2.491
19.284158,-0.353,-9.837,-2.491
19.294057,-0.353,-9.824,-2.569
19.303956,-0.353,-9.792,-2.523
19.313855,-0.314,-9.778,-2.6
19.323754,-0.314,-9.805,-2.446
19.333653,-0.314,-9.76,-2.478
19.343552,-0.314,-9.805,-2.446
19.353451,-0.314,-9.792,-2.523
19.36335,-0.275,-9.767,-2.439
19.373248,-0.353,-9.767,-2.439
19.383146,-0.314,-9.767,-2.439
19.393044,-0.314,-9.78,-2.362
19.402942,-0.314,-9.805,-2.446
19.41284,-0.314,-9.799,-2.485
19.422738,-0.314,-9.785,-2.562
19.432636,-0.314,-9.844,-2.453
19.442534,-0.314,-9.812,-2.407
19.452432,-0.353,-9.76,-2.478
19.46233,-0.353,-9.771,-2.639
19.472228,-0.353,-9.858,-2.375
19.482126,-0.314,-9.805,-2.446
19.492024,-0.314,-9.837,-2.491
19.501901,-0.314,-9.858,-2.375
19.511778,-0.275,-9.855,-2.614
19.521655,-0.314,-9.792,-2.523
19.531532,-0.353,-9.799,-2.485
19.541409,-0.353,-9.805,-2.446
19.551286,-0.353,-9.753,-2.516
19.561163,-0.314,-9.746,-2.555
19.57104,-0.314,-9.76,-2.478
19.580917,-0.314,-9.76,-2.478
19.590794,-0.314,-9.746,-2.555
19.600671,-0.314,-9.83,-2.53
19.610548,-0.275,-9.837,-2.491
19.620425,-0.275,-9.824,-2.569
19.630262,-0.314,-9.851,-2.414
19.640099,-0.275,-9.794,-2.285
19.649936,-0.275,-9.753,-2.516
19.659773,-0.353,-9.76,-2.478
19.66961,-0.314,-9.753,-2.516
19.679447,-0.353,-9.753,-2.516
19.689284,-0.353,-9.76,-2.478
19.699121,-0.353,-9.753,-2.516
19.708958,-0.353,-9.735,-2.394
19.718795,-0.392,-9.76,-2.478
19.728632,-0.392,-9.799,-2.485
19.738469,-0.392,-9.792,-2.523
19.748306,-0.392,-9.805,-2.446
19.758143,-0.353,-9.805,-2.446
19.767963,-0.314,-9.817,-2.607
19.777783,-0.314,-9.851,-2.414
19.787603,-0.314,-9.805,-2.446
19.797423,-0.314,-9.824,-2.569
19.807243,-0.275,-9.792,-2.523
19.817063,-0.275,-9.792,-2.523
19.826883,-0.275,-9.83,-2.53
19.836703,-0.235,-9.83,-2.53
19.846523,-0.275,-9.844,-2.453
19.856343,-0.275,-9.785,-2.562
19.866163,-0.275,-9.792,-2.523
19.875983,-0.314,-9.799,-2.485
19.885803,-0.314,-9.817,-2.607
19.895623,-0.314,-9.837,-2.491
19.905427,-0.353,-9.803,-2.685
19.915231,-0.275,-9.824,-2.569
19.925035,-0.275,-9.785,-2.562
19.934839,-0.314,-9.792,-2.523
19.944643,-0.314,-9.785,-2.562
19.954447,-0.314,-9.753,-2.516
19.964251,-0.314,-9.753,-2.516
19.974055,-0.314,-9.76,-2.478
19.983859,-0.275,-9.753,-2.516
19.993663,-0.314,-9.76,-2.478
20.003467,-0.314,-9.792,-2.523
20.013271,-0.314,-9.799,-2.485
20.023078,-0.314,-9.824,-2.569
20.032885,-0.314,-9.785,-2.562
20.042692,-0.314,-9.799,-2.485
20.052499,-0.275,-9.799,-2.485
20.062306,-0.275,-9.858,-2.375
20.072113,-0.275,-9.819,-2.369
20.08192,-0.275,-9.837,-2.491
20.091727,-0.275,-9.799,-2.485
20.101534,-0.275,-9.799,-2.485
20.111341,-0.275,-9.837,-2.491
20.121148,-0.314,-9.792,-2.523
20.130955,-0.314,-9.812,-2.407
20.140762,-0.353,-9.805,-2.446
20.150585,-0.314,-9.812,-2.407
20.160408,-0.353,-9.785,-2.562
20.170231,-0.314,-9.805,-2.446
20.180054,-0.314,-9.805,-2.446
20.189877,-0.314,-9.785,-2.562
20.1997,-0.275,-9.792,-2.523
20.209523,-0.235,-9.792,-2.523
20.219346,-0.235,-9.792,-2.523
20.229169,-0.235,-9.746,-2.555
20.238992,-0.275,-9.785,-2.562
20.248815,-0.275,-9.785,-2.562
20.258638,-0.235,-9.785,-2.562
20.268461,-0.235,-9.805,-2.446
20.278287,-0.275,-9.796,-2.723
20.288113,-0.314,-9.774,-2.4
20.297939,-0.314,-9.753,-2.516
20.307765,-0.275,-9.753,-2.516
20.317591,-0.314,-9.817,-2.607
20.327417,-0.314,-9.837,-2.491
20.337243,-0.314,-9.733,-2.632
20.347069,-0.353,-9.74,-2.594
20.356895,-0.353,-9.778,-2.6
20.366721,-0.314,-9.746,-2.555
20.376547,-0.314,-9.805,-2.446
20.386373,-0.314,-9.785,-2.562
20.396199,-0.314,-9.792,-2.523
20.406025,-0.275,-9.74,-2.594
20.415856,-0.235,-9.726,-2.671
20.425687,-0.275,-9.753,-2.516
20.435518,-0.235,-9.733,-2.632
20.445349,-0.235,-9.771,-2.639
20.45518,-0.235,-9.778,-2.6
20.465011,-0.275,-9.805,-2.446
20.474842,-0.235,-9.799,-2.485
20.484673,-0.235,-9.799,-2.485
20.494504,-0.275,-9.785,-2.562
20.504335,-0.275,-9.785,-2.562
20.514166,-0.314,-9.792,-2.523
20.523997,-0.314,-9.792,-2.523
20.533828,-0.314,-9.76,-2.478
20.543659,-0.275,-9.76,-2.478
20.55349,-0.314,-9.715,-2.51
20.563339,-0.353,-9.742,-2.355
20.573188,-0.392,-9.708,-2.548
20.583037,-0.314,-9.753,-2.516
20.592886,-0.314,-9.76,-2.478
20.602735,-0.314,-9.778,-2.6
20.612584,-0.275,-9.83,-2.53
20.622433,-0.275,-9.837,-2.491
20.632282,-0.275,-9.844,-2.453
20.642131,-0.235,-9.799,-2.485
20.65198,-0.275,-9.785,-2.562
20.661829,-0.235,-9.792,-2.523
20.671678,-0.235,-9.76,-2.478
20.681558,-0.235,-9.792,-2.523
20.691438,-0.275,-9.74,-2.594
20.701318,-0.275,-9.753,-2.516
20.711198,-0.235,-9.817,-2.607
20.721078,-0.275,-9.83,-2.53
20.730958,-0.275,-9.792,-2.523
20.740838,-0.353,-9.76,-2.478
20.750718,-0.275,-9.778,-2.6
20.760598,-0.235,-9.778,-2.6
20.770478,-0.275,-9.785,-2.562
20.780358,-0.275,-9.785,-2.562
20.790238,-0.275,-9.785,-2.562
20.800118,-0.314,-9.746,-2.555
20.810037,-0.353,-9.765,-2.678
20.819956,-0.314,-9.746,-2.555
20.829875,-0.314,-9.753,-2.516
20.839794,-0.275,-9.753,-2.516
20.849713,-0.275,-9.746,-2.555
20.859632,-0.275,-9.76,-2.478
20.869551,-0.275,-9.746,-2.555
20.87947,-0.235,-9.753,-2.516
20.889389,-0.314,-9.785,-2.562
20.899308,-0.275,-9.799,-2.485
20.909227,-0.235,-9.799,-2.485
20.919146,-0.275,-9.805,-2.446
20.929065,-0.235,-9.753,-2.516
20.938992,-0.275,-9.792,-2.523
20.948919,-0.275,-9.785,-2.562
20.958846,-0.275,-9.74,-2.594
20.968773,-0.275,-9.792,-2.523
20.9787,-0.314,-9.785,-2.562
20.988627,-0.275,-9.778,-2.6
20.998554,-0.275,-9.778,-2.6
21.008481,-0.314,-9.799,-2.485
21.018408,-0.314,-9.799,-2.485
21.028335,-0.275,-9.778,-2.6
21.038262,-0.275,-9.799,-2.485
21.048189,-0.275,-9.76,-2.478
21.058116,-0.275,-9.792,-2.523
21.068043,-0.275,-9.83,-2.53
21.077976,-0.275,-9.785,-2.562
21.087909,-0.275,-9.746,-2.555
21.097842,-0.235,-9.799,-2.485
21.107775,-0.235,-9.792,-2.523
21.117708,-0.235,-9.753,-2.516
21.127641,-0.275,-9.753,-2.516
21.137574,-0.235,-9.771,-2.639
21.147507,-0.275,-9.746,-2.555
21.15744,-0.275,-9.778,-2.6
21.167373,-0.275,-9.785,-2.562
21.177306,-0.275,-9.778,-2.6
21.187239,-0.275,-9.778,-2.6
21.197172,-0.275,-9.753,-2.516
21.207116,-0.314,-9.785,-2.562
21.21706,-0.314,-9.721,-2.471
21.227004,-0.314,-9.733,-2.632
21.236948,-0.275,-9.74,-2.594
21.246892,-0.275,-9.74,-2.594
21.256836,-0.275,-9.771,-2.639
21.26678,-0.275,-9.824,-2.569
21.276724,-0.275,-9.771,-2.639
21.286668,-0.275,-9.778,-2.6
21.296612,-0.314,-9.771,-2.639
21.306556,-0.314,-9.778,-2.6
21.3165,-0.275,-9.765,-2.678
21.326444,-0.275,-9.726,-2.671
21.336404,-0.275,-9.706,-2.787
21.346364,-0.235,-9.765,-2.678
21.356324,-0.235,-9.778,-2.6
21.366284,-0.235,-9.817,-2.607
21.376244,-0.235,-9.817,-2.607
21.386204,-0.235,-9.765,-2.678
21.396164,-0.196,-9.74,-2.594
21.406124,-0.235,-9.746,-2.555
21.416084,-0.235,-9.721,-2.471
21.426044,-0.275,-9.662,-2.58
21.436004,-0.275,-9.662,-2.58
21.445964,-0.314,-9.715,-2.51
21.455924,-0.314,-9.746,-2.555
21.465902,-0.353,-9.74,-2.594
21.47588,-0.314,-9.785,-2.562
21.485858,-0.314,-9.753,-2.516
21.495836,-0.314,-9.746,-2.555
21.505814,-0.275,-9.792,-2.523
21.515792,-0.275,-9.824,-2.569
21.52577,-0.235,-9.785,-2.562
21.535748,-0.196,-9.74,-2.594
21.545726,-0.196,-9.74,-2.594
21.555704,-0.196,-9.758,-2.716
21.565682,-0.196,-9.824,-2.569
21.57566,-0.196,-9.771,-2.639
21.585638,-0.235,-9.733,-2.632
21.595648,-0.235,-9.771,-2.639
21.605658,-0.235,-9.771,-2.639
21.615668,-0.275,-9.785,-2.562
21.625678,-0.275,-9.719,-2.71
21.635688,-0.235,-9.785,-2.562
21.645698,-0.275,-9.785,-2.562
21.655708,-0.275,-9.785,-2.562
21.665718,-0.275,-9.803,-2.685
21.675728,-0.275,-9.81,-2.646
21.685738,-0.235,-9.771,-2.639
21.695748,-0.275,-9.74,-2.594
21.705758,-0.275,-9.74,-2.594
21.715768,-0.235,-9.74,-2.594
21.725772,-0.235,-9.746,-2.555
21.735776,-0.275,-9.778,-2.6
21.74578,-0.235,-9.778,-2.6
21.755784,-0.275,-9.771,-2.639
21.765788,-0.235,-9.785,-2.562
21.775792,-0.235,-9.74,-2.594
21.785796,-0.235,-9.792,-2.523
21.7958,-0.235,-9.799,-2.485
21.805804,-0.235,-9.824,-2.569
21.815808,-0.235,-9.778,-2.6
21.825812,-0.235,-9.771,-2.639
21.835816,-0.196,-9.785,-2.562
21.84582,-0.235,-9.792,-2.523
21.855824,-0.235,-9.778,-2.6
21.865832,-0.275,-9.744,-2.794
21.87584,-0.235,-9.778,-2.6
21.885848,-0.235,-9.799,-2.485
21.895856,-0.235,-9.792,-2.523
21.905864,-0.235,-9.792,-2.523
21.915872,-0.275,-9.778,-2.6
21.92588,-0.275,-9.792,-2.523
21.935888,-0.314,-9.792,-2.523
21.945896,-0.275,-9.778,-2.6
21.955904,-0.314,-9.778,-2.6
21.965912,-0.314,-9.785,-2.562
21.97592,-0.275,-9.785,-2.562
21.985928,-0.275,-9.785,-2.562
21.995942,-0.314,-9.758,-2.716
22.005956,-0.314,-9.726,-2.671
22.01597,-0.275,-9.792,-2.523
22.025984,-0.235,-9.771,-2.639
22.035998,-0.235,-9.733,-2.632
22.046012,-0.235,-9.733,-2.632
22.056026,-0.275,-9.799,-2.485
22.06604,-0.275,-9.785,-2.562
22.076054,-0.275,-9.778,-2.6
22.086068,-0.314,-9.785,-2.562
22.096082,-0.235,-9.785,-2.562
22.106096,-0.275,-9.792,-2.523
22.11611,-0.235,-9.83,-2.53
22.126135,-0.235,-9.803,-2.685
22.13616,-0.314,-9.79,-2.762
22.146185,-0.314,-9.81,-2.646
22.15621,-0.314,-9.844,-2.453
22.166235,-0.314,-9.746,-2.555
22.17626,-0.314,-9.792,-2.523
22.186285,-0.314,-9.792,-2.523
22.19631,-0.314,-9.778,-2.6
22.206335,-0.275,-9.785,-2.562
22.21636,-0.275,-9.765,-2.678
22.226385,-0.235,-9.83,-2.53
22.23641,-0.196,-9.792,-2.523
22.246435,-0.235,-9.733,-2.632
22.25646,-0.235,-9.753,-2.516
22.266451,-0.196,-9.712,-2.748
22.276442,-0.235,-9.787,-2.323
22.286433,-0.275,-9.746,-2.555
22.296424,-0.275,-9.701,-2.587
22.306415,-0.275,-9.746,-2.555
22.316406,-0.275,-9.733,-2.632
22.326397,-0.275,-9.721,-2.471
22.336388,-0.314,-9.746,-2.555
22.346379,-0.275,-9.778,-2.6
22.35637,-0.314,-9.792,-2.523
22.366361,-0.275,-9.785,-2.562
22.376352,-0.275,-9.817,-2.607
22.386343,-0.275,-9.824,-2.569
22.396334,-0.235,-9.792,-2.523
22.406295,-0.235,-9.778,-2.6
22.416256,-0.235,-9.83,-2.53
22.426217,-0.196,-9.824,-2.569
22.436178,-0.196,-9.817,-2.607
22.446139,-0.235,-9.792,-2.523
22.4561,-0.196,-9.785,-2.562
22.466061,-0.235,-9.771,-2.639
22.476022,-0.275,-9.778,-2.6
22.485983,-0.235,-9.785,-2.562
22.495944,-0.235,-9.771,-2.639
22.505905,-0.235,-9.799,-2.485
22.515866,-0.275,-9.817,-2.607
22.525827,-0.235,-9.817,-2.607
22.535768,-0.275,-9.758,-2.716
22.545709,-0.235,-9.792,-2.523
22.55565,-0.235,-9.785,-2.562
22.565591,-0.275,-9.792,-2.523
22.575532,-0.235,-9.733,-2.632
22.585473,-0.275,-9.778,-2.6
22.595414,-0.235,-9.733,-2.632
22.605355,-0.275,-9.785,-2.562
22.615296,-0.235,-9.785,-2.562
22.625237,-0.196,-9.785,-2.562
22.635178,-0.275,-9.824,-2.569
22.645119,-0.235,-9.824,-2.569
22.65506,-0.275,-9.778,-2.6
22.664995,-0.235,-9.778,-2.6
22.67493,-0.196,-9.74,-2.594
22.684865,-0.235,-9.792,-2.523
22.6948,-0.235,-9.799,-2.485
22.704735,-0.235,-9.83,-2.53
22.71467,-0.235,-9.746,-2.555
22.724605,-0.275,-9.719,-2.71
22.73454,-0.275,-9.785,-2.562
22.744475,-0.235,-9.81,-2.646
22.75441,-0.314,-9.83,-2.53
22.764345,-0.275,-9.771,-2.639
22.77428,-0.275,-9.785,-2.562
22.784215,-0.235,-9.765,-2.678
22.794118,-0.235,-9.805,-2.446
22.804021,-0.235,-9.778,-2.6
22.813924,-0.235,-9.74,-2.594
22.823827,-0.235,-9.746,-2.555
22.83373,-0.235,-9.771,-2.639
22.843633,-0.235,-9.778,-2.6
22.853536,-0.235,-9.778,-2.6
22.863439,-0.235,-9.753,-2.516
22.873342,-0.235,-9.701,-2.587
22.883245,-0.235,-9.746,-2.555
22.893148,-0.196,-9.733,-2.632
22.903051,-0.235,-9.74,-2.594
22.912954,-0.196,-9.792,-2.523
22.922857,-0.196,-9.765,-2.678
22.932769,-0.275,-9.771,-2.639
22.942681,-0.235,-9.803,-2.685
22.952593,-0.196,-9.817,-2.607
22.962505,-0.196,-9.778,-2.6
22.972417,-0.196,-9.778,-2.6
22.982329,-0.235,-9.785,-2.562
22.992241,-0.235,-9.785,-2.562
23.002153,-0.235,-9.785,-2.562
23.012065,-0.235,-9.792,-2.523
23.021977,-0.314,-9.746,-2.555
23.031889,-0.314,-9.792,-2.523
23.041801,-0.275,-9.746,-2.555
23.051682,-0.235,-9.785,-2.562
23.061563,-0.235,-9.706,-2.787
23.071444,-0.196,-9.778,-2.6
23.081325,-0.196,-9.765,-2.678
23.091206,-0.235,-9.733,-2.632
23.101087,-0.235,-9.733,-2.632
23.110968,-0.196,-9.792,-2.523
23.120849,-0.196,-9.733,-2.632
23.13073,-0.235,-9.76,-2.478
23.140611,-0.275,-9.76,-2.478
23.150492,-0.314,-9.694,-2.625
23.160373,-0.275,-9.715,-2.51
23.170254,-0.275,-9.708,-2.548
23.180135,-0.314,-9.753,-2.516
23.189997,-0.275,-9.792,-2.523
23.199859,-0.275,-9.826,-2.33
23.209721,-0.275,-9.785,-2.562
23.219583,-0.314,-9.862,-2.575
23.229445,-0.275,-9.803,-2.685
23.239307,-0.235,-9.792,-2.523
23.249169,-0.196,-9.817,-2.607
23.259031,-0.196,-9.824,-2.569
23.268893,-0.196,-9.817,-2.607
23.278755,-0.196,-9.824,-2.569
23.288617,-0.196,-9.785,-2.562
23.298479,-0.196,-9.799,-2.485
23.308341,-0.196,-9.753,-2.516
23.318203,-0.235,-9.817,-2.607
23.328049,-0.275,-9.751,-2.755
23.337895,-0.275,-9.74,-2.594
23.347741,-0.275,-9.778,-2.6
23.357587,-0.275,-9.785,-2.562
23.367433,-0.275,-9.771,-2.639
23.377279,-0.235,-9.765,-2.678
23.387125,-0.275,-9.778,-2.6
23.396971,-0.275,-9.785,-2.562
23.406817,-0.275,-9.803,-2.685
23.416663,-0.235,-9.778,-2.6
23.426509,-0.275,-9.733,-2.632
23.436355,-0.275,-9.701,-2.587
23.446201,-0.275,-9.74,-2.594
23.456044,-0.275,-9.733,-2.632
23.465887,-0.235,-9.746,-2.555
23.47573,-0.196,-9.753,-2.516
23.485573,-0.196,-9.771,-2.639
23.495416,-0.196,-9.778,-2.6
23.505259,-0.196,-9.771,-2.639
23.515102,-0.235,-9.765,-2.678
23.524945,-0.235,-9.792,-2.523
23.534788,-0.235,-9.799,-2.485
23.544631,-0.196,-9.805,-2.446
23.554474,-0.235,-9.778,-2.6
23.564317,-0.235,-9.792,-2.523
23.57416,-0.314,-9.753,-2.516
23.584005,-0.314,-9.753,-2.516
23.59385,-0.392,-9.746,-2.555
23.603695,-0.353,-9.778,-2.6
23.61354,-0.353,-9.792,-2.523
23.623385,-0.314,-9.785,-2.562
23.63323,-0.353,-9.792,-2.523
23.643075,-0.353,-9.792,-2.523
23.65292,-0.353,-9.792,-2.523
23.662765,-0.353,-9.785,-2.562
23.67261,-0.314,-9.74,-2.594
23.682455,-0.314,-9.74,-2.594
23.6923,-0.314,-9.746,-2.555
23.702145,-0.314,-9.733,-2.632
23.71199,-0.275,-9.733,-2.632
23.721835,-0.353,-9.746,-2.555
23.73168,-0.275,-9.778,-2.6
23.741553,-0.314,-9.792,-2.523
23.751426,-0.275,-9.771,-2.639
23.761299,-0.275,-9.887,-2.66
23.771172,-0.275,-9.771,-2.639
23.781045,-0.314,-9.83,-2.53
23.790918,-0.314,-9.778,-2.6
23.800791,-0.275,-9.81,-2.646
23.810664,-0.275,-9.778,-2.6
23.820537,-0.275,-9.799,-2.485
23.83041,-0.275,-9.817,-2.607
23.840283,-0.235,-9.778,-2.6
23.850156,-0.275,-9.805,-2.446
23.860045,-0.235,-9.765,-2.678
23.869934,-0.235,-9.771,-2.639
23.879823,-0.275,-9.785,-2.562
23.889712,-0.235,-9.74,-2.594
23.899601,-0.275,-9.733,-2.632
23.90949,-0.235,-9.771,-2.639
23.919379,-0.275,-9.765,-2.678
23.929268,-0.235,-9.771,-2.639
23.939157,-0.235,-9.81,-2.646
23.949046,-0.235,-9.765,-2.678
23.958935,-0.275,-9.74,-2.594
23.968824,-0.275,-9.746,-2.555
23.978713,-0.314,-9.719,-2.71
23.988597,-0.314,-9.733,-2.632
23.998481,-0.314,-9.733,-2.632
24.008365,-0.275,-9.771,-2.639
24.018249,-0.275,-9.74,-2.594
24.028133,-0.235,-9.715,-2.51
24.038017,-0.275,-9.74,-2.594
24.047901,-0.275,-9.771,-2.639
24.057785,-0.235,-9.771,-2.639
24.067669,-0.275,-9.785,-2.562
24.077553,-0.235,-9.74,-2.594
24.087437,-0.235,-9.771,-2.639
24.097321,-0.235,-9.785,-2.562
24.107205,-0.196,-9.778,-2.6
24.117089,-0.235,-9.803,-2.685
24.127007,-0.275,-9.783,-2.8
24.136925,-0.235,-9.765,-2.678
24.146843,-0.275,-9.758,-2.716
24.156761,-0.314,-9.758,-2.716
24.166679,-0.314,-9.758,-2.716
24.176597,-0.275,-9.74,-2.594
24.186515,-0.235,-9.733,-2.632
24.196433,-0.235,-9.719,-2.71
24.206351,-0.275,-9.74,-2.594
24.216269,-0.275,-9.733,-2.632
24.226187,-0.275,-9.746,-2.555
24.236105,-0.275,-9.733,-2.632
24.246023,-0.314,-9.694,-2.625
24.255973,-0.314,-9.726,-2.671
24.265923,-0.235,-9.667,-2.78
24.275873,-0.275,-9.733,-2.632
24.285823,-0.275,-9.726,-2.671
24.295773,-0.314,-9.719,-2.71
24.305723,-0.314,-9.701,-2.587
24.315673,-0.314,-9.74,-2.594
24.325623,-0.275,-9.719,-2.71
24.335573,-0.275,-9.719,-2.71
24.345523,-0.275,-9.778,-2.6
24.355473,-0.275,-9.765,-2.678
24.365423,-0.275,-9.785,-2.562
24.375373,-0.196,-9.771,-2.639
24.385323,-0.235,-9.803,-2.685
24.395273,-0.235,-9.771,-2.639
24.405216,-0.235,-9.744,-2.794
24.415159,-0.235,-9.758,-2.716
24.425102,-0.235,-9.765,-2.678
24.435045,-0.196,-9.765,-2.678
24.444988,-0.235,-9.771,-2.639
24.454931,-0.314,-9.785,-2.562
24.464874,-0.314,-9.799,-2.485
24.474817,-0.314,-9.81,-2.646
24.48476,-0.275,-9.83,-2.53
24.494703,-0.275,-9.785,-2.562
24.504646,-0.275,-9.758,-2.716
24.514589,-0.353,-9.771,-2.639
24.524524,-0.314,-9.758,-2.716
24.534459,-0.314,-9.733,-2.632
24.544394,-0.314,-9.778,-2.6
24.554329,-0.235,-9.796,-2.723
24.564264,-0.235,-9.803,-2.685
24.574199,-0.275,-9.785,-2.562
24.584134,-0.235,-9.785,-2.562
24.594069,-0.235,-9.771,-2.639
24.604004,-0.275,-9.765,-2.678
24.613939,-0.275,-9.785,-2.562
24.623874,-0.235,-9.746,-2.555
24.633809,-0.275,-9.771,-2.639
24.643744,-0.235,-9.744,-2.794
24.653679,-0.235,-9.771,-2.639
24.663632,-0.314,-9.753,-2.516
24.673585,-0.353,-9.751,-2.755
24.683538,-0.275,-9.733,-2.632
24.693491,-0.275,-9.726,-2.671
24.703444,-0.275,-9.726,-2.671
24.713397,-0.314,-9.726,-2.671
24.72335,-0.275,-9.719,-2.71
24.733303,-0.314,-9.765,-2.678
24.743256,-0.275,-9.803,-2.685
24.753209,-0.275,-9.765,-2.678
24.763162,-0.275,-9.751,-2.755
24.773115,-0.275,-9.74,-2.594
24.783068,-0.275,-9.694,-2.625
24.793041,-0.314,-9.687,-2.664
24.803014,-0.275,-9.699,-2.825
24.812987,-0.314,-9.701,-2.587
24.82296,-0.314,-9.726,-2.671
24.832933,-0.314,-9.74,-2.594
24.842906,-0.314,-9.751,-2.755
24.852879,-0.275,-9.733,-2.632
24.862852,-0.275,-9.765,-2.678
24.872825,-0.275,-9.771,-2.639
24.882798,-0.275,-9.758,-2.716
24.892771,-0.235,-9.771,-2.639
24.902744,-0.235,-9.758,-2.716
24.912717,-0.235,-9.778,-2.6
24.922678,-0.235,-9.771,-2.639
24.932639,-0.196,-9.751,-2.755
24.9426,-0.196,-9.744,-2.794
24.952561,-0.196,-9.726,-2.671
24.962522,-0.196,-9.726,-2.671
24.972483,-0.235,-9.771,-2.639
24.982444,-0.196,-9.785,-2.562
24.992405,-0.196,-9.74,-2.594
25.002366,-0.196,-9.687,-2.664
25.012327,-0.196,-9.708,-2.548
25.022288,-0.196,-9.694,-2.625
25.032249,-0.235,-9.778,-2.6
25.04221,-0.196,-9.765,-2.678
25.052171,-0.235,-9.758,-2.716
25.062132,-0.235,-9.733,-2.632
25.072128,-0.275,-9.733,-2.632
25.082124,-0.275,-9.746,-2.555
25.09212,-0.275,-9.726,-2.671
25.102116,-0.275,-9.726,-2.671
25.112112,-0.275,-9.74,-2.594
25.122108,-0.275,-9.778,-2.6
25.132104,-0.275,-9.799,-2.485
25.1421,-0.275,-9.81,-2.646
25.152096,-0.314,-9.785,-2.562
25.162092,-0.275,-9.805,-2.446
25.172088,-0.275,-9.799,-2.485
25.182066,-0.235,-9.783,-2.8
25.192044,-0.235,-9.771,-2.639
25.202022,-0.275,-9.81,-2.646
25.212,-0.275,-9.746,-2.555
25.221978,-0.275,-9.817,-2.607
25.231956,-0.275,-9.771,-2.639
25.241934,-0.275,-9.817,-2.607
25.251912,-0.275,-9.758,-2.716
25.26189,-0.275,-9.746,-2.555
25.271868,-0.235,-9.792,-2.523
25.281846,-0.235,-9.771,-2.639
25.291824,-0.235,-9.765,-2.678
25.301802,-0.275,-9.778,-2.6
25.31178,-0.314,-9.746,-2.555
25.321744,-0.275,-9.74,-2.594
25.331708,-0.275,-9.74,-2.594
25.341672,-0.275,-9.701,-2.587
25.351636,-0.275,-9.681,-2.703
25.3616,-0.235,-9.74,-2.594
25.371564,-0.275,-9.687,-2.664
25.381528,-0.235,-9.701,-2.587
25.391492,-0.235,-9.726,-2.671
25.401456,-0.275,-9.74,-2.594
25.41142,-0.275,-9.771,-2.639
25.421384,-0.235,-9.726,-2.671
25.431348,-0.235,-9.751,-2.755
25.441312,-0.275,-9.719,-2.71
25.451269,-0.235,-9.765,-2.678
25.461226,-0.196,-9.76,-2.478
25.471183,-0.235,-9.701,-2.587
25.48114,-0.235,-9.771,-2.639
25.491097,-0.196,-9.74,-2.594
25.501054,-0.235,-9.765,-2.678
25.511011,-0.235,-9.771,-2.639
25.520968,-0.235,-9.74,-2.594
25.530925,-0.235,-9.733,-2.632
25.540882,-0.196,-9.733,-2.632
25.550839,-0.196,-9.765,-2.678
25.560796,-0.235,-9.733,-2.632
25.570753,-0.196,-9.74,-2.594
25.580693,-0.196,-9.737,-2.832
25.590633,-0.235,-9.778,-2.6
25.600573,-0.235,-9.765,-2.678
25.610513,-0.235,-9.726,-2.671
25.620453,-0.235,-9.733,-2.632
25.630393,-0.275,-9.778,-2.6
25.640333,-0.314,-9.817,-2.607
25.650273,-0.275,-9.746,-2.555
25.660213,-0.314,-9.778,-2.6
25.670153,-0.275,-9.753,-2.516
25.680093,-0.314,-9.771,-2.639
25.690033,-0.353,-9.771,-2.639
25.699973,-0.353,-9.81,-2.646
25.709913,-0.353,-9.765,-2.678
25.719839,-0.275,-9.803,-2.685
25.729765,-0.314,-9.824,-2.569
25.739691,-0.275,-9.81,-2.646
25.749617,-0.235,-9.83,-2.53
25.759543,-0.196,-9.765,-2.678
25.769469,-0.196,-9.81,-2.646
25.779395,-0.235,-9.778,-2.6
25.789321,-0.235,-9.778,-2.6
25.799247,-0.235,-9.771,-2.639
25.809173,-0.235,-9.719,-2.71
25.819099,-0.235,-9.765,-2.678
25.829025,-0.314,-9.726,-2.671
25.838951,-0.314,-9.746,-2.555
25.848867,-0.275,-9.778,-2.6
25.858783,-0.314,-9.785,-2.562
25.868699,-0.314,-9.778,-2.6
25.878615,-0.353,-9.74,-2.594
25.888531,-0.314,-9.785,-2.562
25.898447,-0.314,-9.726,-2.671
25.908363,-0.275,-9.778,-2.6
25.918279,-0.275,-9.719,-2.71
25.928195,-0.314,-9.753,-2.516
25.938111,-0.275,-9.74,-2.594
25.948027,-0.275,-9.74,-2.594
25.957943,-0.275,-9.74,-2.594
25.967859,-0.314,-9.785,-2.562
25.977775,-0.314,-9.778,-2.6
25.987712,-0.275,-9.81,-2.646
25.997649,-0.314,-9.837,-2.491
26.007586,-0.275,-9.81,-2.646
26.017523,-0.314,-9.855,-2.614
26.02746,-0.314,-9.81,-2.646
26.037397,-0.314,-9.817,-2.607
26.047334,-0.353,-9.803,-2.685
26.057271,-0.353,-9.765,-2.678
26.067208,-0.353,-9.785,-2.562
26.077145,-0.353,-9.771,-2.639
26.087082,-0.392,-9.778,-2.6
26.097019,-0.392,-9.81,-2.646
26.106952,-0.353,-9.83,-2.53
26.116885,-0.314,-9.778,-2.6
26.126818,-0.314,-9.74,-2.594
26.136751,-0.353,-9.74,-2.594
26.146684,-0.314,-9.726,-2.671
26.156617,-0.314,-9.733,-2.632
26.16655,-0.275,-9.719,-2.71
26.176483,-0.275,-9.778,-2.6
26.186416,-0.314,-9.712,-2.748
26.196349,-0.314,-9.706,-2.787
26.206282,-0.275,-9.778,-2.6
26.216215,-0.275,-9.771,-2.639
26.226148,-0.275,-9.765,-2.678
26.236081,-0.275,-9.771,-2.639
26.246015,-0.275,-9.726,-2.671
26.255949,-0.275,-9.733,-2.632
26.265883,-0.314,-9.719,-2.71
26.275817,-0.275,-9.771,-2.639
26.285751,-0.314,-9.765,-2.678
26.295685,-0.275,-9.765,-2.678
26.305619,-0.235,-9.79,-2.762
26.315553,-0.275,-9.771,-2.639
26.325487,-0.314,-9.719,-2.71
26.335421,-0.314,-9.733,-2.632
26.345355,-0.314,-9.712,-2.748
26.355289,-0.275,-9.726,-2.671
26.365223,-0.235,-9.751,-2.755
26.375141,-0.275,-9.692,-2.864
26.385059,-0.275,-9.778,-2.6
26.394977,-0.314,-9.758,-2.716
26.404895,-0.275,-9.765,-2.678
26.414813,-0.275,-9.733,-2.632
26.424731,-0.235,-9.687,-2.664
26.434649,-0.275,-9.719,-2.71
26.444567,-0.314,-9.726,-2.671
26.454485,-0.275,-9.74,-2.594
26.464403,-0.314,-9.733,-2.632
26.474321,-0.275,-9.706,-2.787
26.484239,-0.314,-9.712,-2.748
26.494157,-0.353,-9.726,-2.671
26.504075,-0.314,-9.765,-2.678
26.513995,-0.275,-9.771,-2.639
26.523915,-0.275,-9.81,-2.646
26.533835,-0.314,-9.803,-2.685
26.543755,-0.275,-9.758,-2.716
26.553675,-0.275,-9.81,-2.646
26.563595,-0.275,-9.81,-2.646
26.573515,-0.275,-9.837,-2.491
26.583435,-0.235,-9.83,-2.53
26.593355,-0.235,-9.733,-2.632
26.603275,-0.314,-9.785,-2.562
26.613195,-0.235,-9.778,-2.6
26.623115,-0.235,-9.746,-2.555
26.633035,-0.275,-9.74,-2.594
26.642947,-0.314,-9.737,-2.832
26.652859,-0.235,-9.785,-2.562
26.662771,-0.235,-9.778,-2.6
26.672683,-0.314,-9.771,-2.639
26.682595,-0.314,-9.726,-2.671
26.692507,-0.314,-9.771,-2.639
26.702419,-0.314,-9.771,-2.639
26.712331,-0.314,-9.719,-2.71
26.722243,-0.314,-9.719,-2.71
26.732155,-0.353,-9.712,-2.748
26.742067,-0.314,-9.778,-2.6
26.751979,-0.314,-9.758,-2.716
26.761891,-0.314,-9.758,-2.716
26.77181,-0.275,-9.778,-2.6
26.781729,-0.235,-9.758,-2.716
26.791648,-0.275,-9.771,-2.639
26.801567,-0.275,-9.758,-2.716
26.811486,-0.275,-9.758,-2.716
26.821405,-0.275,-9.771,-2.639
26.831324,-0.314,-9.771,-2.639
26.841243,-0.275,-9.817,-2.607
26.851162,-0.275,-9.765,-2.678
26.861081,-0.275,-9.758,-2.716
26.871,-0.275,-9.765,-2.678
26.880919,-0.275,-9.796,-2.723
26.890838,-0.235,-9.765,-2.678
26.900757,-0.235,-9.733,-2.632
26.910676,-0.275,-9.765,-2.678
26.920642,-0.314,-9.765,-2.678
26.930608,-0.314,-9.771,-2.639
26.940574,-0.353,-9.81,-2.646
26.95054,-0.314,-9.796,-2.723
26.960506,-0.275,-9.765,-2.678
26.970472,-0.314,-9.778,-2.6
26.980438,-0.314,-9.778,-2.6
26.990404,-0.314,-9.785,-2.562
27.00037,-0.275,-9.771,-2.639
27.010336,-0.314,-9.778,-2.6
27.020302,-0.275,-9.778,-2.6
27.030283,-0.275,-9.706,-2.787
27.040264,-0.275,-9.74,-2.594
27.050245,-0.314,-9.74,-2.594
27.060226,-0.314,-9.765,-2.678
27.070207,-0.314,-9.778,-2.6
27.080188,-0.275,-9.74,-2.594
27.090169,-0.275,-9.765,-2.678
27.10015,-0.353,-9.778,-2.6
27.110131,-0.353,-9.771,-2.639
27.120112,-0.353,-9.765,-2.678
27.130093,-0.392,-9.719,-2.71
27.140074,-0.353,-9.726,-2.671
27.150055,-0.353,-9.719,-2.71
27.160009,-0.353,-9.76,-2.478
27.169963,-0.314,-9.687,-2.664
27.179917,-0.314,-9.74,-2.594
27.189871,-0.275,-9.771,-2.639
27.199825,-0.235,-9.771,-2.639
27.209779,-0.235,-9.817,-2.607
27.219733,-0.235,-9.746,-2.555
27.229687,-0.196,-9.771,-2.639
27.239641,-0.196,-9.726,-2.671
27.249595,-0.196,-9.719,-2.71
27.259549,-0.196,-9.726,-2.671
27.269503,-0.196,-9.733,-2.632
27.279457,-0.196,-9.708,-2.548
27.289411,-0.196,-9.708,-2.548
27.299362,-0.235,-9.746,-2.555
27.309313,-0.196,-9.758,-2.716
27.319264,-0.275,-9.771,-2.639
27.329215,-0.235,-9.817,-2.607
27.339166,-0.275,-9.817,-2.607
27.349117,-0.314,-9.81,-2.646
27.359068,-0.275,-9.792,-2.523
27.369019,-0.235,-9.765,-2.678
27.37897,-0.275,-9.778,-2.6
27.388921,-0.275,-9.785,-2.562
27.398872,-0.275,-9.778,-2.6
27.408823,-0.235,-9.778,-2.6
27.418774,-0.196,-9.733,-2.632
27.428734,-0.235,-9.719,-2.71
27.438694,-0.275,-9.751,-2.755
27.448654,-0.275,-9.74,-2.594
27.458614,-0.275,-9.765,-2.678
27.468574,-0.275,-9.726,-2.671
27.478534,-0.235,-9.746,-2.555
27.488494,-0.196,-9.771,-2.639
27.498454,-0.275,-9.771,-2.639
27.508414,-0.275,-9.733,-2.632
27.518374,-0.314,-9.719,-2.71
27.528334,-0.314,-9.785,-2.562
27.538294,-0.275,-9.74,-2.594
27.548254,-0.275,-9.733,-2.632
27.558214,-0.314,-9.753,-2.516
27.568174,-0.275,-9.771,-2.639
27.578142,-0.275,-9.805,-2.446
27.58811,-0.275,-9.719,-2.71
27.598078,-0.314,-9.771,-2.639
27.608046,-0.275,-9.733,-2.632
27.618014,-0.235,-9.785,-2.562
27.627982,-0.275,-9.765,-2.678
27.63795,-0.275,-9.792,-2.523
27.647918,-0.275,-9.771,-2.639
27.657886,-0.275,-9.803,-2.685
27.667854,-0.275,-9.803,-2.685
27.677822,-0.275,-9.785,-2.562
27.68779,-0.275,-9.824,-2.569
27.697758,-0.314,-9.824,-2.569
27.707724,-0.314,-9.817,-2.607
27.71769,-0.314,-9.771,-2.639
27.727656,-0.314,-9.771,-2.639
27.737622,-0.314,-9.837,-2.491
27.747588,-0.275,-9.844,-2.453
27.757554,-0.275,-9.824,-2.569
27.76752,-0.235,-9.81,-2.646
27.777486,-0.196,-9.778,-2.6
27.787452,-0.196,-9.83,-2.53
27.797418,-0.196,-9.778,-2.6
27.807384,-0.157,-9.792,-2.523
27.81735,-0.118,-9.733,-2.632
27.827316,-0.157,-9.771,-2.639
27.837282,-0.196,-9.771,-2.639
27.847226,-0.196,-9.753,-2.516
27.85717,-0.157,-9.76,-2.478
27.867114,-0.157,-9.753,-2.516
27.877058,-0.235,-9.771,-2.639
27.887002,-0.275,-9.758,-2.716
27.896946,-0.275,-9.753,-2.516
27.90689,-0.275,-9.733,-2.632
27.916834,-0.314,-9.733,-2.632
27.926778,-0.353,-9.817,-2.607
27.936722,-0.353,-9.778,-2.6
27.946666,-0.314,-9.785,-2.562
27.95661,-0.314,-9.771,-2.639
27.966554,-0.314,-9.76,-2.478
27.976481,-0.353,-9.746,-2.555
27.986408,-0.353,-9.792,-2.523
27.996335,-0.314,-9.746,-2.555
28.006262,-0.314,-9.733,-2.632
28.016189,-0.275,-9.746,-2.555
28.026116,-0.314,-9.712,-2.748
28.036043,-0.275,-9.733,-2.632
28.04597,-0.275,-9.778,-2.6
28.055897,-0.235,-9.758,-2.716
28.065824,-0.235,-9.771,-2.639
28.075751,-0.235,-9.733,-2.632
28.085678,-0.235,-9.733,-2.632
28.095605,-0.275,-9.746,-2.555
28.10551,-0.275,-9.78,-2.362
28.115415,-0.275,-9.746,-2.555
28.12532,-0.275,-9.701,-2.587
28.135225,-0.275,-9.74,-2.594
28.14513,-0.275,-9.753,-2.516
28.155035,-0.275,-9.746,-2.555
28.16494,-0.275,-9.844,-2.453
28.174845,-0.235,-9.876,-2.498
28.18475,-0.275,-9.81,-2.646
28.194655,-0.275,-9.81,-2.646
28.20456,-0.196,-9.778,-2.6
28.214465,-0.235,-9.83,-2.53
28.22437,-0.235,-9.817,-2.607
28.234275,-0.196,-9.785,-2.562
28.24418,-0.196,-9.824,-2.569
28.254069,-0.235,-9.796,-2.723
28.263958,-0.196,-9.805,-2.446
28.273847,-0.235,-9.74,-2.594
28.283736,-0.235,-9.81,-2.646
28.293625,-0.275,-9.753,-2.516
28.303514,-0.235,-9.778,-2.6
28.313403,-0.235,-9.799,-2.485
28.323292,-0.235,-9.746,-2.555
28.333181,-0.235,-9.708,-2.548
28.34307,-0.235,-9.771,-2.639
28.352959,-0.275,-9.746,-2.555
28.362848,-0.314,-9.785,-2.562
28.372737,-0.314,-9.74,-2.594
28.382619,-0.275,-9.758,-2.716
28.392501,-0.235,-9.778,-2.6
28.402383,-0.235,-9.778,-2.6
28.412265,-0.235,-9.785,-2.562
28.422147,-0.275,-9.74,-2.594
28.432029,-0.196,-9.708,-2.548
28.441911,-0.196,-9.708,-2.548
28.451793,-0.157,-9.785,-2.562
28.461675,-0.157,-9.824,-2.569
28.471557,-0.118,-9.849,-2.653
28.481439,-0.118,-9.855,-2.614
28.491321,-0.118,-9.849,-2.653
28.501203,-0.157,-9.83,-2.53
28.511099,-0.196,-9.792,-2.523
28.520995,-0.196,-9.792,-2.523
28.530891,-0.196,-9.785,-2.562
28.540787,-0.157,-9.817,-2.607
28.550683,-0.235,-9.778,-2.6
28.560579,-0.235,-9.771,-2.639
28.570475,-0.275,-9.746,-2.555
28.580371,-0.275,-9.694,-2.625
28.590267,-0.275,-9.669,-2.541
28.600163,-0.275,-9.701,-2.587
28.610059,-0.314,-9.708,-2.548
28.619955,-0.314,-9.746,-2.555
28.629851,-0.314,-9.774,-2.4
28.639747,-0.314,-9.753,-2.516
28.64964,-0.275,-9.805,-2.446
28.659533,-0.275,-9.819,-2.369
28.669426,-0.275,-9.785,-2.562
28.679319,-0.275,-9.778,-2.6
28.689212,-0.275,-9.792,-2.523
28.699105,-0.275,-9.837,-2.491
28.708998,-0.353,-9.837,-2.491
28.718891,-0.314,-9.851,-2.414
28.728784,-0.314,-9.824,-2.569
28.738677,-0.275,-9.862,-2.575
28.74857,-0.353,-9.876,-2.498
28.758463,-0.314,-9.883,-2.46
28.768356,-0.392,-9.89,-2.421
28.778266,-0.431,-9.83,-2.53
28.788176,-0.353,-9.876,-2.498
28.798086,-0.392,-9.824,-2.569
28.807996,-0.392,-9.817,-2.607
28.817906,-0.392,-9.83,-2.53
28.827816,-0.392,-9.771,-2.639
28.837726,-0.353,-9.765,-2.678
28.847636,-0.314,-9.771,-2.639
28.857546,-0.353,-9.765,-2.678
28.867456,-0.314,-9.778,-2.6
28.877366,-0.314,-9.765,-2.678
28.887276,-0.314,-9.765,-2.678
28.897186,-0.314,-9.771,-2.639
28.90713,-0.314,-9.733,-2.632
28.917074,-0.353,-9.669,-2.541
28.927018,-0.314,-9.642,-2.696
28.936962,-0.314,-9.656,-2.619
28.946906,-0.275,-9.642,-2.696
28.95685,-0.196,-9.656,-2.619
28.966794,-0.157,-9.694,-2.625
28.976738,-0.157,-9.708,-2.548
28.986682,-0.118,-9.719,-2.71
28.996626,-0.118,-9.719,-2.71
29.00657,-0.078,-9.771,-2.639
29.016514,-0.078,-9.849,-2.653
29.026458,-0.078,-9.817,-2.607
29.036399,-0.118,-9.862,-2.575
29.04634,-0.118,-9.79,-2.762
29.056281,-0.118,-9.83,-2.53
29.066222,-0.078,-9.746,-2.555
29.076163,-0.157,-9.74,-2.594
29.086104,-0.118,-9.778,-2.6
29.096045,-0.157,-9.778,-2.6
29.105986,-0.196,-9.778,-2.6
29.115927,-0.196,-9.771,-2.639
29.125868,-0.157,-9.733,-2.632
29.135809,-0.157,-9.733,-2.632
29.14575,-0.235,-9.726,-2.671
29.155691,-0.196,-9.746,-2.555
29.165632,-0.235,-9.765,-2.678
29.175559,-0.275,-9.81,-2.646
29.185486,-0.235,-9.778,-2.6
29.195413,-0.235,-9.81,-2.646
29.20534,-0.196,-9.771,-2.639
29.215267,-0.196,-9.765,-2.678
29.225194,-0.157,-9.765,-2.678
29.235121,-0.118,-9.758,-2.716
29.245048,-0.078,-9.733,-2.632
29.254975,-0.078,-9.74,-2.594
29.264902,-0.118,-9.753,-2.516
29.274829,-0.157,-9.676,-2.503
29.284756,-0.157,-9.662,-2.58
29.294683,-0.157,-9.669,-2.541
29.30461,-0.196,-9.662,-2.58
29.31455,-0.235,-9.701,-2.587
29.32449,-0.235,-9.771,-2.639
29.33443,-0.235,-9.817,-2.607
29.34437,-0.235,-9.83,-2.53
29.35431,-0.275,-9.817,-2.607
29.36425,-0.196,-9.817,-2.607
29.37419,-0.157,-9.771,-2.639
29.38413,-0.118,-9.817,-2.607
29.39407,-0.078,-9.817,-2.607
29.40401,-0.118,-9.733,-2.632
29.41395,-0.118,-9.719,-2.71
29.42389,-0.118,-9.76,-2.478
29.433802,-0.157,-9.733,-2.632
29.443714,-0.157,-9.687,-2.664
29.453626,-0.196,-9.701,-2.587
29.463538,-0.196,-9.715,-2.51
29.47345,-0.196,-9.649,-2.657
29.483362,-0.196,-9.694,-2.625
29.493274,-0.157,-9.694,-2.625
29.503186,-0.157,-9.687,-2.664
29.513098,-0.196,-9.74,-2.594
29.52301,-0.157,-9.681,-2.703
29.532922,-0.196,-9.694,-2.625
29.542834,-0.235,-9.715,-2.51
29.552746,-0.235,-9.701,-2.587
29.562658,-0.275,-9.715,-2.51
29.57256,-0.314,-9.683,-2.464
29.582462,-0.353,-9.635,-2.735
29.592364,-0.353,-9.69,-2.426
29.602266,-0.392,-9.683,-2.464
29.612168,-0.392,-9.703,-2.348
29.62207,-0.353,-9.76,-2.478
29.631972,-0.353,-9.819,-2.369
29.641874,-0.392,-9.851,-2.414
29.651776,-0.275,-9.903,-2.344
29.661678,-0.275,-9.942,-2.35
29.67158,-0.235,-9.935,-2.389
29.681482,-0.196,-9.89,-2.421
29.691384,-0.196,-9.903,-2.344
29.701276,-0.196,-9.876,-2.498
29.711168,-0.235,-9.849,-2.653
29.72106,-0.235,-9.833,-2.291
29.730952,-0.235,-9.794,-2.285
29.740844,-0.275,-9.762,-2.239
29.750736,-0.275,-9.762,-2.239
29.760628,-0.275,-9.762,-2.239
29.77052,-0.275,-9.794,-2.285
29.780412,-0.196,-9.846,-2.214
29.790304,-0.235,-9.84,-2.253
29.800196,-0.275,-9.84,-2.253
29.810088,-0.275,-9.871,-2.298
29.81998,-0.314,-9.86,-2.137
29.829874,-0.353,-9.851,-2.414
29.839768,-0.353,-9.86,-2.137
29.849662,-0.353,-9.84,-2.253
29.859556,-0.353,-9.828,-2.091
29.86945,-0.314,-9.867,-2.098
29.879344,-0.314,-9.874,-2.06
29.889238,-0.314,-9.835,-2.053
29.899132,-0.275,-9.86,-2.137
29.909026,-0.275,-9.887,-1.982
29.91892,-0.275,-9.815,-2.169
29.928814,-0.275,-9.892,-2.182
29.938708,-0.235,-9.937,-2.151
29.948602,-0.235,-9.976,-2.157
29.958502,-0.196,-9.996,-2.041
29.968402,-0.196,-10.035,-2.048
29.978302,-0.157,-9.969,-2.196
29.988202,-0.157,-9.996,-2.041
29.998102,-0.157,-9.951,-2.073
30.008002,-0.157,-9.899,-2.144
30.017902,-0.157,-9.905,-2.105
30.027802,-0.196,-9.835,-2.053
30.037702,-0.196,-9.828,-2.091
30.047602,-0.196,-9.81,-1.969
30.057502,-0.157,-9.855,-1.937
30.067402,-0.118,-9.828,-2.091
30.077302,-0.118,-9.887,-1.982
30.087202,-0.118,-9.862,-1.898
30.097118,-0.118,-9.862,-1.898
30.107034,-0.118,-9.862,-1.898
30.11695,-0.157,-9.894,-1.944
30.126866,-0.196,-9.894,-1.944
30.136782,-0.196,-9.914,-1.828
30.146698,-0.235,-9.862,-1.898
30.156614,-0.235,-9.901,-1.905
30.16653,-0.235,-9.876,-1.821
30.176446,-0.235,-9.908,-1.866
30.186362,-0.196,-9.914,-1.828
30.196278,-0.235,-9.999,-1.803
30.206194,-0.235,-10.012,-1.726
30.216133,-0.196,-10.012,-1.726
30.226072,-0.118,-9.985,-1.88
30.236011,-0.157,-10.005,-1.764
30.24595,-0.157,-9.967,-1.757
30.255889,-0.118,-10.005,-1.764
30.265828,-0.078,-10.083,-1.778
30.275767,-0.039,-10.058,-1.694
30.285706,-0.078,-10.051,-1.732
30.295645,-0.118,-9.992,-1.841
30.305584,-0.157,-9.974,-1.719
30.315523,-0.157,-9.921,-1.789
30.325462,-0.157,-9.889,-1.744
30.335401,-0.157,-9.889,-1.744
30.345322,-0.118,-9.917,-1.589
30.355243,-0.118,-9.91,-1.628
30.365164,-0.157,-9.921,-1.789
30.375085,-0.157,-9.903,-1.667
30.385006,-0.235,-9.864,-1.66
30.394927,-0.235,-9.858,-1.698
30.404848,-0.275,-9.896,-1.705
30.414769,-0.275,-9.942,-1.673
30.42469,-0.275,-9.878,-1.582
30.434611,-0.275,-9.846,-1.537
30.444532,-0.275,-9.846,-1.537
30.454453,-0.235,-9.885,-1.544
30.464374,-0.235,-9.949,-1.635
30.474295,-0.196,-10.033,-1.61
30.484253,-0.196,-10.039,-1.571
30.494211,-0.196,-10.071,-1.617
30.504169,-0.157,-10.071,-1.617
30.514127,-0.157,-10.078,-1.578
30.524085,-0.118,-10.026,-1.648
30.534043,-0.157,-9.98,-1.68
30.544001,-0.118,-9.917,-1.589
30.553959,-0.157,-9.91,-1.628
30.563917,-0.196,-9.846,-1.537
30.573875,-0.196,-9.774,-1.723
30.583833,-0.157,-9.735,-1.717
30.593791,-0.157,-9.56,-1.805
30.603749,-0.078,-9.496,-1.714
30.6137,-0.039,-9.321,-1.803
30.623651,0.039,-9.217,-1.944
30.633602,0.039,-9.126,-2.007
30.643553,-0.039,-9.108,-1.885
30.653504,-0.039,-9.083,-1.801
30.663455,-0.118,-9.09,-1.762
30.673406,-0.118,-9.096,-1.723
30.683357,-0.157,-9.13,-1.53
30.693308,-0.157,-9.13,-1.53
30.703259,-0.196,-9.176,-1.498
30.71321,-0.196,-9.144,-1.453
30.723161,-0.196,-9.185,-1.221
30.733112,-0.196,-9.23,-1.189
30.743063,-0.196,-9.258,-1.035
30.753014,-0.157,-9.319,-0.687
30.762984,-0.196,-9.319,-0.687
30.772954,-0.196,-9.367,-0.417
30.782924,-0.157,-9.387,-0.301
30.792894,-0.157,-9.414,-0.146
30.802864,-0.196,-9.532,0.072
30.812834,-0.235,-9.619,0.335
30.822804,-0.235,-9.678,0.444
30.832774,-0.235,-9.801,0.463
30.842744,-0.314,-9.894,0.765
30.852714,-0.314,-10.044,0.938
30.862684,-0.314,-10.103,1.047
30.872654,-0.353,-10.221,1.265
30.882597,-0.353,-10.241,1.381
30.89254,-0.392,-10.334,1.683
30.902483,-0.471,-10.439,1.824
30.912426,-0.471,-10.537,1.926
30.922369,-0.471,-10.68,2.06
30.932312,-0.431,-10.7,2.176
30.942255,-0.431,-10.752,2.247
30.952198,-0.471,-10.696,2.376
30.962141,-0.431,-10.586,2.435
30.972084,-0.431,-10.471,2.456
30.982027,-0.431,-10.305,2.644
30.99197,-0.431,-10.073,2.685
31.001913,-0.431,-10.023,2.853
31.011856,-0.431,-10.03,2.892
31.021781,-0.392,-9.957,2.705
31.031706,-0.314,-10.03,2.892
31.041631,-0.353,-10.068,2.885
31.051556,-0.353,-10.089,3.001
31.061481,-0.314,-10.089,3.001
31.071406,-0.275,-10.032,3.13
31.081331,-0.235,-9.98,3.06
31.091256,-0.196,-9.993,3.137
31.101181,-0.118,-9.955,3.144
31.111106,-0.118,-10.007,3.214
31.121031,-0.118,-9.93,3.228
31.130956,-0.118,-9.864,3.08
31.140881,-0.078,-9.793,3.133
31.150811,-0.039,-9.702,3.069
31.160741,-0.039,-9.684,3.192
31.170671,0.0,-9.639,3.16
31.180601,0.039,-9.555,3.135
31.190531,0.078,-9.555,3.135
31.200461,0.118,-9.562,3.174
31.210391,0.118,-9.502,3.064
31.220321,0.157,-9.502,3.064
31.230251,0.157,-9.548,3.096
31.240181,0.196,-9.607,3.205
31.250111,0.196,-9.625,3.083
31.260041,0.157,-9.691,3.23
31.269971,0.157,-9.73,3.224
31.279887,0.157,-9.775,3.255
31.289803,0.157,-9.787,3.094
31.299719,0.118,-9.793,3.133
31.309635,0.039,-9.839,3.164
31.319551,0.0,-9.993,3.137
31.329467,-0.039,-10.161,3.187
31.339383,-0.078,-10.407,3.224
31.349299,-0.157,-10.48,3.41
31.359215,-0.196,-10.702,3.092
31.369131,-0.235,-10.77,3.478
31.379047,-0.275,-10.536,3.28
31.388963,-0.275,-10.33,3.237
31.398879,-0.314,-10.252,3.251
31.408795,-0.275,-10.33,3.237
31.418711,-0.353,-10.246,3.212
31.428628,-0.392,-10.284,3.205
31.438545,-0.392,-10.271,3.128
31.448462,-0.471,-10.218,3.058
31.458379,-0.471,-10.1,2.84
31.468296,-0.471,-10.132,2.794
31.478213,-0.549,-10.318,2.721
31.48813,-0.549,-10.318,2.721
31.498047,-0.588,-10.273,2.69
31.507964,-0.549,-10.234,2.696
31.517881,-0.51,-10.084,2.524
31.527798,-0.549,-10.032,2.453
31.537715,-0.549,-9.934,2.351
31.547644,-0.549,-9.809,2.094
31.557573,-0.471,-9.646,1.844
31.567502,-0.471,-9.607,1.851
31.577431,-0.431,-9.587,1.735
31.58736,-0.431,-9.475,1.556
31.597289,-0.353,-9.469,1.517
31.607218,-0.314,-9.414,1.208
31.617147,-0.275,-9.426,1.047
31.627076,-0.235,-9.478,1.117
31.637005,-0.196,-9.521,0.91
31.646934,-0.157,-9.473,0.64
31.656863,-0.118,-9.557,0.665
31.666792,-0.157,-9.582,0.581
31.676698,-0.157,-9.628,0.613
31.686604,-0.039,-9.557,-0.012
31.69651,-0.078,-9.644,0.251
31.706416,-0.039,-9.546,0.149
31.716322,-0.078,-9.571,0.065
31.726228,-0.078,-9.537,-0.128
31.736134,-0.039,-9.498,-0.121
31.74604,-0.078,-9.492,-0.16
31.755946,-0.078,-9.451,-0.392
31.765852,-0.078,-9.548,-0.29
31.775758,-0.078,-9.535,-0.367
31.785664,-0.118,-9.546,-0.528
31.79557,-0.118,-9.61,-0.619
31.805476,-0.118,-9.719,-0.678
31.815388,-0.157,-9.808,-0.853
31.8253,-0.196,-9.803,-0.653
31.835212,-0.235,-9.755,-0.923
31.845124,-0.196,-9.728,-1.078
31.855036,-0.196,-9.798,-1.13
31.864948,-0.196,-9.921,-1.112
31.87486,-0.235,-9.946,-1.196
31.884772,-0.235,-9.939,-1.235
31.894684,-0.235,-9.958,-1.357
31.904596,-0.235,-10.055,-1.255
31.914508,-0.235,-10.048,-1.294
31.92442,-0.275,-9.958,-1.357
31.934332,-0.314,-9.939,-1.235
31.944239,-0.314,-9.939,-1.235
31.954146,-0.314,-9.88,-1.344
31.964053,-0.392,-9.803,-1.33
31.97396,-0.353,-9.81,-1.292
31.983867,-0.353,-9.803,-1.33
31.993774,-0.353,-9.81,-1.292
32.003681,-0.353,-9.764,-1.323
32.013588,-0.353,-9.758,-1.362
32.023495,-0.353,-9.81,-1.292
32.033402,-0.353,-9.821,-1.453
32.043309,-0.353,-9.86,-1.46
32.053216,-0.353,-9.873,-1.382
32.063123,-0.392,-9.867,-1.421
32.07303,-0.392,-9.828,-1.414
32.082937,-0.392,-9.821,-1.453
32.092868,-0.431,-9.835,-1.376
32.102799,-0.51,-9.826,-1.653
32.11273,-0.471,-9.871,-1.621
32.122661,-0.51,-9.924,-1.551
32.132592,-0.549,-9.962,-1.557
32.142523,-0.549,-9.976,-1.48
32.152454,-0.549,-9.917,-1.589
32.162385,-0.549,-9.935,-1.712
32.172316,-0.588,-9.987,-1.642
32.182247,-0.588,-10.005,-1.764
32.192178,-0.549,-10.019,-1.687
32.202126,-0.51,-10.11,-1.623
32.212074,-0.471,-10.11,-1.623
32.222022,-0.471,-10.135,-1.707
32.23197,-0.471,-10.089,-1.739
32.241918,-0.471,-10.058,-1.694
32.251866,-0.471,-10.012,-1.726
32.261814,-0.431,-9.974,-1.719
32.271762,-0.471,-9.946,-1.873
32.28171,-0.431,-9.946,-1.873
32.291658,-0.431,-9.928,-1.751
32.301606,-0.431,-9.896,-1.705
32.311554,-0.431,-9.858,-1.698
32.321502,-0.392,-9.83,-1.853
32.331428,-0.353,-9.869,-1.86
32.341354,-0.314,-9.926,-1.989
32.35128,-0.353,-9.992,-1.841
32.361206,-0.314,-10.01,-1.964
32.371132,-0.196,-10.028,-2.087
32.381058,-0.078,-10.021,-2.126
32.390984,0.0,-10.067,-2.094
32.40091,0.039,-10.067,-2.094
32.410836,0.078,-9.976,-2.157
32.420762,0.157,-9.969,-2.196
32.430688,0.157,-9.93,-2.189
32.440614,0.157,-9.885,-2.221
32.45054,0.118,-9.853,-2.176
32.460466,0.118,-9.808,-2.207
32.470417,0.078,-9.769,-2.201
32.480368,0.078,-9.755,-2.278
32.490319,0.0,-9.769,-2.201
32.50027,0.0,-9.703,-2.348
32.510221,-0.078,-9.703,-2.348
32.520172,-0.078,-9.749,-2.316
32.530123,-0.118,-9.715,-2.51
32.540074,-0.157,-9.753,-2.516
32.550025,-0.196,-9.708,-2.548
32.559976,-0.275,-9.721,-2.471
32.569927,-0.275,-9.701,-2.587
32.579878,-0.314,-9.701,-2.587
32.589829,-0.353,-9.687,-2.664
32.599785,-0.353,-9.694,-2.625
32.609741,-0.353,-9.649,-2.657
32.619697,-0.353,-9.565,-2.682
32.629653,-0.314,-9.59,-2.766
32.639609,-0.314,-9.59,-2.766
32.649565,-0.314,-9.603,-2.689
32.659521,-0.314,-9.603,-2.689
32.669477,-0.314,-9.569,-2.882
32.679433,-0.314,-9.615,-2.85
32.689389,-0.392,-9.583,-2.805
32.699345,-0.392,-9.576,-2.844
32.709301,-0.353,-9.576,-2.844
32.719257,-0.314,-9.59,-2.766
32.729217,-0.275,-9.562,-2.921
32.739177,-0.196,-9.517,-2.953
32.749137,-0.235,-9.635,-2.735
32.759097,-0.275,-9.706,-2.787
32.769057,-0.353,-9.706,-2.787
32.779017,-0.431,-9.667,-2.78
32.788977,-0.431,-9.667,-2.78
32.798937,-0.392,-9.694,-2.625
32.808897,-0.431,-9.694,-2.625
32.818857,-0.392,-9.674,-2.741
32.828817,-0.275,-9.712,-2.748
32.838777,-0.196,-9.719,-2.71
32.848737,-0.157,-9.719,-2.71
32.858705,-0.157,-9.712,-2.748
32.868673,-0.118,-9.712,-2.748
32.878641,-0.078,-9.674,-2.741
32.888609,-0.078,-9.726,-2.671
32.898577,-0.039,-9.771,-2.639
32.908545,-0.039,-9.758,-2.716
32.918513,-0.039,-9.765,-2.678
32.928481,-0.039,-9.744,-2.794
32.938449,-0.039,-9.765,-2.678
32.948417,-0.039,-9.726,-2.671
32.958385,-0.039,-9.771,-2.639
32.968353,-0.039,-9.765,-2.678
32.978321,-0.118,-9.708,-2.548
32.988289,-0.157,-9.687,-2.664
32.998257,-0.196,-9.656,-2.619
33.008225,-0.196,-9.694,-2.625
33.018193,-0.235,-9.74,-2.594
33.028161,-0.235,-9.726,-2.671
33.038129,-0.275,-9.726,-2.671
33.048097,-0.314,-9.778,-2.6
33.058065,-0.353,-9.719,-2.71
33.068033,-0.353,-9.765,-2.678
33.078001,-0.431,-9.824,-2.569
33.087969,-0.431,-9.796,-2.723
33.097937,-0.431,-9.817,-2.607
33.107905,-0.51,-9.817,-2.607
33.117873,-0.471,-9.817,-2.607
33.127819,-0.471,-9.824,-2.569
33.137765,-0.431,-9.746,-2.555
33.147711,-0.471,-9.733,-2.632
33.157657,-0.51,-9.733,-2.632
33.167603,-0.51,-9.792,-2.523
33.177549,-0.471,-9.746,-2.555
33.187495,-0.51,-9.746,-2.555
33.197441,-0.471,-9.746,-2.555
33.207387,-0.471,-9.701,-2.587
33.217333,-0.431,-9.774,-2.4
33.227279,-0.431,-9.799,-2.485
33.237225,-0.431,-9.76,-2.478
33.247171,-0.431,-9.728,-2.432
33.257102,-0.431,-9.715,-2.51
33.267033,-0.431,-9.728,-2.432
33.276964,-0.431,-9.742,-2.355
33.286895,-0.471,-9.767,-2.439
33.296826,-0.431,-9.78,-2.362
33.306757,-0.431,-9.774,-2.4
33.316688,-0.392,-9.78,-2.362
33.326619,-0.431,-9.76,-2.478
33.33655,-0.392,-9.812,-2.407
33.346481,-0.392,-9.858,-2.375
33.356412,-0.353,-9.865,-2.337
33.366343,-0.392,-9.865,-2.337
33.376274,-0.392,-9.851,-2.414
33.386215,-0.353,-9.878,-2.26
33.396156,-0.314,-9.858,-2.375
33.406097,-0.314,-9.833,-2.291
33.416038,-0.314,-9.833,-2.291
33.425979,-0.314,-9.84,-2.253
33.43592,-0.314,-9.846,-2.214
33.445861,-0.314,-9.846,-2.214
33.455802,-0.275,-9.84,-2.253
33.465743,-0.314,-9.84,-2.253
33.475684,-0.314,-9.84,-2.253
33.485625,-0.235,-9.84,-2.253
33.495566,-0.235,-9.91,-2.305
33.505507,-0.196,-9.924,-2.228
33.515427,-0.157,-9.899,-2.144
33.525347,-0.196,-9.871,-2.298
33.535267,-0.196,-9.865,-2.337
33.545187,-0.235,-9.949,-2.312
33.555107,-0.235,-9.917,-2.266
33.565027,-0.196,-9.917,-2.266
33.574947,-0.235,-9.885,-2.221
33.584867,-0.235,-9.892,-2.182
33.594787,-0.235,-9.84,-2.253
33.604707,-0.157,-9.815,-2.169
33.614627,-0.118,-9.853,-2.176
33.624547,-0.157,-9.917,-2.266
33.634467,-0.118,-10.001,-2.241
33.644387,-0.118,-10.078,-2.255
33.65429,-0.078,-10.137,-2.146
33.664193,-0.118,-10.046,-2.21
33.674096,-0.078,-9.962,-2.235
33.683999,-0.118,-9.924,-2.228
33.693902,-0.157,-9.828,-2.091
33.703805,-0.118,-9.733,-1.955
33.713708,-0.157,-9.708,-1.871
33.723611,-0.157,-9.708,-1.871
33.733514,-0.196,-9.651,-1.742
33.743417,-0.196,-9.651,-1.742
33.75332,-0.196,-9.626,-1.657
33.763223,-0.275,-9.633,-1.619
33.773126,-0.235,-9.705,-1.432
33.783036,-0.314,-9.735,-1.717
33.792946,-0.275,-9.848,-1.298
33.802856,-0.314,-9.919,-1.351
33.812766,-0.314,-10.092,-1.501
33.822676,-0.353,-10.292,-1.496
33.832586,-0.392,-10.405,-1.755
33.842496,-0.392,-10.517,-1.576
33.852406,-0.392,-10.58,-1.666
33.862316,-0.392,-10.521,-1.776
33.872226,-0.392,-10.458,-1.685
33.882136,-0.392,-10.36,-1.787
33.892046,-0.353,-10.314,-1.819
33.901956,-0.392,-10.217,-1.921
33.911858,-0.431,-10.153,-1.83
33.92176,-0.471,-10.067,-2.094
33.931662,-0.471,-10.035,-2.048
33.941564,-0.431,-9.937,-2.151
33.951466,-0.431,-9.808,-2.207
33.961368,-0.392,-9.787,-2.323
33.97127,-0.392,-9.819,-2.369
33.981172,-0.353,-9.819,-2.369
33.991074,-0.314,-9.785,-2.562
34.000976,-0.314,-9.721,-2.471
34.010878,-0.275,-9.644,-2.457
34.02078,-0.275,-9.587,-2.328
34.030682,-0.275,-9.36,-2.487
34.040584,-0.235,-9.29,-2.435
34.050477,-0.235,-9.276,-2.512
34.06037,-0.275,-9.369,-2.21
34.070263,-0.235,-9.426,-2.339
34.080156,-0.157,-9.499,-2.153
34.090049,-0.118,-9.562,-2.244
34.099942,-0.078,-9.583,-2.128
34.109835,-0.078,-9.59,-2.089
34.119728,-0.078,-9.808,-2.207
34.129621,-0.118,-9.692,-2.187
34.139514,-0.078,-9.667,-2.103
34.149407,-0.118,-9.621,-2.135
34.1593,-0.078,-9.583,-2.128
34.169193,-0.078,-9.583,-2.128
34.179086,-0.157,-9.576,-2.166
34.188977,-0.196,-9.608,-2.212
34.198868,-0.314,-9.712,-2.071
34.208759,-0.471,-9.712,-2.071
34.21865,-0.628,-9.68,-2.026
34.228541,-0.745,-9.746,-1.878
34.238432,-0.824,-9.799,-1.807
34.248323,-0.824,-9.864,-1.66
34.258214,-0.902,-9.86,-1.46
34.268105,-0.863,-9.905,-1.428
34.277996,-0.902,-10.008,-1.526
34.287887,-0.863,-10.101,-1.223
34.297778,-0.824,-10.185,-1.198
34.307669,-0.785,-10.23,-1.167
34.317574,-0.745,-10.323,-0.864
34.327479,-0.588,-10.401,-0.878
34.337384,-0.51,-10.412,-1.039
34.347289,-0.471,-10.432,-0.923
34.357194,-0.431,-10.387,-0.955
34.367099,-0.392,-10.342,-0.987
34.377004,-0.314,-10.342,-0.987
34.386909,-0.235,-10.355,-0.91
34.396814,-0.196,-10.355,-0.91
34.406719,-0.157,-10.303,-0.98
34.416624,-0.078,-10.31,-0.942
34.426529,-0.039,-10.173,-1.037
34.436434,0.039,-10.071,-0.939
34.446336,0.039,-9.948,-0.958
34.456238,0.118,-9.846,-0.86
34.46614,0.196,-9.946,-1.196
34.476042,0.275,-10.012,-1.048
34.485944,0.275,-10.037,-1.132
34.495846,0.314,-10.087,-1.301
34.505748,0.392,-10.171,-1.276
34.51565,0.392,-10.139,-1.23
34.525552,0.392,-10.062,-1.217
34.535454,0.353,-10.062,-1.217
34.545356,0.314,-10.069,-1.178
34.555258,0.314,-10.037,-1.132
34.56516,0.235,-10.023,-1.21
34.575062,0.235,-10.101,-1.223
34.584971,0.157,-10.128,-1.069
34.59488,0.118,-10.042,-1.332
34.604789,0.078,-10.108,-1.185
34.614698,0.078,-10.108,-1.185
34.624607,0.039,-10.16,-1.114
34.634516,0.0,-10.044,-1.094
34.644425,-0.039,-10.03,-1.171
34.654334,0.0,-10.114,-1.146
34.664243,-0.039,-10.083,-1.101
34.674152,-0.078,-10.062,-1.217
34.684061,-0.078,-10.114,-1.146
34.69397,-0.118,-10.089,-1.062
34.703879,-0.157,-10.005,-1.087
34.713804,-0.196,-10.023,-1.21
34.723729,-0.235,-10.01,-1.287
34.733654,-0.275,-9.921,-1.112
34.743579,-0.275,-9.894,-1.267
34.753504,-0.235,-9.894,-1.267
34.763429,-0.275,-9.926,-1.312
34.773354,-0.235,-9.908,-1.189
34.783279,-0.235,-9.905,-1.428
34.793204,-0.235,-9.971,-1.28
34.803129,-0.235,-9.967,-1.08
34.813054,-0.196,-9.862,-1.221
34.822979,-0.157,-10.017,-1.248
34.832904,-0.118,-10.03,-1.171
34.842851,-0.157,-9.987,-0.964
34.852798,-0.196,-10.067,-1.417
34.862745,-0.118,-10.178,-1.237
34.872692,-0.078,-10.114,-1.146
34.882639,-0.078,-10.073,-1.378
34.892586,0.0,-10.094,-1.262
34.902533,0.0,-10.083,-1.101
34.91248,0.0,-9.971,-1.28
34.922427,0.039,-10.003,-1.326
34.932374,0.0,-9.978,-1.242
34.942321,0.039,-9.971,-1.28
34.952268,0.0,-9.978,-1.242
34.962215,-0.039,-9.971,-1.28
34.972162,-0.039,-10.067,-1.417
34.982112,0.0,-10.119,-1.346
34.992062,-0.078,-10.151,-1.392
35.002012,-0.078,-10.137,-1.469
35.011962,-0.078,-10.048,-1.294
35.021912,-0.078,-9.978,-1.242
35.031862,-0.118,-9.823,-1.214
35.041812,-0.118,-9.823,-1.214
35.051762,-0.118,-9.785,-1.208
35.061712,-0.118,-9.83,-1.176
35.071662,-0.078,-9.908,-1.189
35.081612,-0.078,-9.967,-1.08
35.091562,-0.118,-9.862,-1.221
35.101512,-0.078,-9.894,-1.267
35.111446,-0.078,-10.023,-1.21
35.12138,-0.157,-10.133,-1.269
35.131314,-0.078,-10.057,-1.017
35.141248,-0.078,-10.023,-1.21
35.151182,-0.078,-10.101,-1.223
35.161116,-0.039,-10.062,-1.217
35.17105,0.0,-10.03,-1.171
35.180984,0.039,-10.248,-1.289
35.190918,0.118,-10.442,-1.323
35.200852,0.196,-10.346,-1.187
35.210786,0.275,-10.146,-1.192
35.22072,0.275,-10.178,-1.237
35.230654,0.314,-10.255,-1.251
35.240594,0.314,-10.223,-1.205
35.250534,0.353,-10.151,-1.392
35.260474,0.314,-10.126,-1.307
35.270414,0.235,-10.133,-1.269
35.280354,0.196,-10.094,-1.262
35.290294,0.118,-10.003,-1.326
35.300234,0.039,-9.964,-1.319
35.310174,-0.039,-9.926,-1.312
35.320114,-0.118,-9.971,-1.28
35.330054,-0.235,-9.983,-1.442
35.339994,-0.314,-10.021,-1.448
35.349934,-0.431,-10.055,-1.255
35.359874,-0.549,-10.092,-1.501
35.369833,-0.549,-10.158,-1.353
35.379792,-0.588,-10.08,-1.339
35.389751,-0.628,-9.955,-1.596
35.39971,-0.667,-9.892,-1.505
35.409669,-0.667,-9.783,-1.446
35.419628,-0.706,-9.696,-1.71
35.429587,-0.667,-9.728,-1.755
35.439546,-0.667,-9.708,-1.871
35.449505,-0.588,-9.824,-1.891
35.459464,-0.588,-9.792,-1.846
35.469423,-0.588,-9.778,-1.923
35.479382,-0.549,-9.803,-2.007
35.489341,-0.471,-9.749,-1.639
35.499275,-0.471,-9.79,-2.085
35.509209,-0.471,-9.824,-1.891
35.519143,-0.431,-9.901,-1.905
35.529077,-0.471,-9.858,-1.698
35.539011,-0.392,-9.919,-2.028
35.548945,-0.392,-9.837,-1.814
35.558879,-0.353,-9.867,-2.098
35.568813,-0.353,-9.928,-1.751
35.578747,-0.353,-9.869,-1.86
35.588681,-0.314,-9.83,-1.853
35.598615,-0.235,-9.824,-1.891
35.608549,-0.235,-9.792,-1.846
35.618483,-0.235,-9.728,-1.755
35.628417,-0.196,-9.637,-1.819
35.638343,-0.157,-9.696,-1.71
35.648269,-0.118,-9.701,-1.91
35.658195,-0.118,-9.785,-1.885
35.668121,-0.157,-9.869,-1.86
35.678047,-0.196,-9.946,-1.873
35.687973,-0.196,-10.012,-1.726
35.697899,-0.235,-10.012,-1.726
35.707825,-0.235,-10.026,-1.648
35.717751,-0.275,-10.019,-1.687
35.727677,-0.275,-10.058,-1.694
35.737603,-0.275,-10.033,-1.61
35.747529,-0.275,-10.039,-1.571
35.757455,-0.275,-10.071,-1.617
35.767381,-0.235,-10.071,-1.617
35.777307,-0.235,-9.987,-1.642
35.787233,-0.275,-9.962,-1.557
35.797159,-0.275,-9.955,-1.596
35.807085,-0.235,-9.889,-1.744
35.817011,-0.196,-9.935,-1.712
35.826937,-0.196,-9.949,-1.635
35.836863,-0.196,-9.949,-1.635
35.846789,-0.235,-9.896,-1.705
35.856715,-0.235,-9.83,-1.853
35.866641,-0.196,-9.844,-1.776
35.876567,-0.196,-9.858,-1.698
35.886493,-0.157,-9.889,-1.744
35.896419,-0.157,-9.889,-1.744
35.906349,-0.196,-9.889,-1.744
35.916279,-0.118,-9.889,-1.744
35.926209,-0.157,-9.883,-1.782
35.936139,-0.157,-9.974,-1.719
35.946069,-0.196,-9.978,-1.919
35.955999,-0.196,-9.978,-1.919
35.965929,-0.196,-10.012,-1.726
35.975859,-0.196,-9.967,-1.757
35.985789,-0.235,-9.967,-1.757
35.995719,-0.196,-9.967,-1.757
36.005649,-0.157,-9.935,-1.712
36.015579,-0.196,-9.921,-1.789
36.025504,-0.235,-9.908,-1.866
36.035429,-0.235,-9.889,-1.744
36.045354,-0.235,-9.967,-1.757
36.055279,-0.235,-9.98,-1.68
36.065204,-0.235,-9.937,-1.473
36.075129,-0.275,-9.864,-1.66
36.085054,-0.275,-9.864,-1.66
36.094979,-0.275,-9.903,-1.667
36.104904,-0.314,-9.924,-1.551
36.114829,-0.314,-9.883,-1.782
36.124754,-0.314,-9.928,-1.751
36.134679,-0.353,-9.871,-1.621
36.144604,-0.353,-9.896,-1.705
36.154529,-0.353,-9.896,-1.705
36.164455,-0.353,-9.874,-2.06
36.174381,-0.353,-9.914,-1.828
36.184307,-0.392,-9.921,-1.789
36.194233,-0.353,-9.96,-1.796
36.204159,-0.353,-9.974,-1.719
36.214085,-0.353,-9.96,-1.796
36.224011,-0.353,-9.96,-1.796
36.233937,-0.353,-9.96,-1.796
36.243863,-0.353,-9.928,-1.751
36.253789,-0.353,-9.921,-1.789
36.263715,-0.314,-9.928,-1.751
36.273641,-0.314,-9.928,-1.751
36.283567,-0.353,-9.883,-1.782
36.293461,-0.314,-9.903,-1.667
36.303355,-0.314,-9.942,-1.673
36.313249,-0.275,-9.928,-1.751
36.323143,-0.275,-9.908,-1.866
36.333037,-0.314,-9.921,-1.789
36.342931,-0.275,-9.883,-1.782
36.352825,-0.235,-9.901,-1.905
36.362719,-0.275,-9.869,-1.86
36.372613,-0.235,-9.928,-1.751
36.382507,-0.275,-9.883,-1.782
36.392401,-0.275,-9.869,-1.86
36.402295,-0.235,-9.876,-1.821
36.412189,-0.235,-9.869,-1.86
36.422083,-0.235,-9.876,-1.821
36.431968,-0.275,-9.921,-1.789
36.441853,-0.275,-9.935,-1.712
36.451738,-0.275,-9.896,-1.705
36.461623,-0.275,-9.949,-1.635
36.471508,-0.275,-9.928,-1.751
36.481393,-0.275,-9.98,-1.68
36.491278,-0.275,-9.98,-1.68
36.501163,-0.275,-10.001,-1.564
36.511048,-0.275,-9.962,-1.557
36.520933,-0.314,-10.001,-1.564
36.530818,-0.353,-9.987,-1.642
36.540703,-0.353,-9.987,-1.642
36.550588,-0.314,-10.026,-1.648
36.560473,-0.314,-10.001,-1.564
36.570329,-0.314,-9.955,-1.596
36.580185,-0.353,-9.921,-1.789
36.590041,-0.314,-10.001,-1.564
36.599897,-0.314,-9.983,-1.442
36.609753,-0.353,-9.93,-1.512
36.619609,-0.314,-9.903,-1.667
36.629465,-0.275,-9.91,-1.628
36.639321,-0.314,-9.91,-1.628
36.649177,-0.275,-9.969,-1.519
36.659033,-0.235,-9.987,-1.642
36.668889,-0.314,-9.994,-1.603
36.678745,-0.275,-9.98,-1.68
36.688601,-0.275,-9.917,-1.589
36.698443,-0.235,-9.955,-1.596
36.708285,-0.275,-9.851,-1.737
36.718127,-0.275,-9.917,-1.589
36.727969,-0.275,-9.917,-1.589
36.737811,-0.275,-9.942,-1.673
36.747653,-0.275,-9.942,-1.673
36.757495,-0.275,-9.928,-1.751
36.767337,-0.275,-9.942,-1.673
36.777179,-0.314,-9.903,-1.667
36.787021,-0.314,-9.91,-1.628
36.796863,-0.314,-9.91,-1.628
36.806705,-0.314,-9.871,-1.621
36.816547,-0.314,-9.924,-1.551
36.826345,-0.353,-9.892,-1.505
36.836143,-0.392,-9.955,-1.596
36.845941,-0.353,-9.974,-1.719
36.855739,-0.353,-10.026,-1.648
36.865537,-0.353,-10.005,-1.764
36.875335,-0.314,-9.942,-1.673
36.885133,-0.353,-9.949,-1.635
36.894931,-0.353,-9.935,-1.712
36.904729,-0.314,-9.942,-1.673
36.914527,-0.392,-9.942,-1.673
36.924325,-0.392,-9.955,-1.596
36.934123,-0.392,-9.962,-1.557
36.943921,-0.314,-9.903,-1.667
36.953719,-0.314,-9.864,-1.66
36.963517,-0.314,-9.91,-1.628
36.973287,-0.314,-9.91,-1.628
36.983057,-0.275,-9.91,-1.628
36.992827,-0.275,-9.91,-1.628
37.002597,-0.275,-9.955,-1.596
37.012367,-0.275,-9.935,-1.712
37.022137,-0.196,-9.98,-1.68
37.031907,-0.235,-9.98,-1.68
37.041677,-0.196,-10.001,-1.564
37.051447,-0.235,-10.033,-1.61
37.061217,-0.235,-9.994,-1.603
37.070987,-0.275,-9.924,-1.551
37.080757,-0.314,-9.912,-1.389
37.090527,-0.353,-9.912,-1.389
37.10029,-0.431,-10.094,-1.262
37.110053,-0.431,-10.171,-1.276
37.119816,-0.392,-10.235,-1.367
37.129579,-0.392,-10.221,-1.444
37.139342,-0.392,-10.389,-1.394
37.149105,-0.431,-10.51,-1.614
37.158868,-0.431,-10.305,-1.419
37.168631,-0.392,-10.001,-1.564
37.178394,-0.51,-9.751,-1.401
37.188157,-0.392,-9.433,-0.946
37.19792,-0.471,-9.714,-1.832
37.207683,-0.431,-9.553,-1.167
37.217446,-0.431,-9.578,-1.928
37.227222,-0.392,-9.726,-1.317
37.236998,-0.431,-9.549,-1.644
37.246774,-0.314,-9.776,-1.485
37.25655,-0.392,-9.78,-1.685
37.266326,-0.353,-9.953,-1.835
37.276102,-0.353,-9.953,-1.835
37.285878,-0.353,-10.058,-1.694
37.295654,-0.353,-9.96,-1.796
37.30543,-0.314,-9.98,-1.68
37.315206,-0.275,-9.935,-1.712
37.324982,-0.275,-9.949,-1.635
37.334758,-0.275,-9.928,-1.751
37.344534,-0.314,-9.871,-1.621
37.35431,-0.275,-9.885,-1.544
37.364111,-0.314,-9.833,-1.614
37.373912,-0.235,-9.899,-1.467
37.383713,-0.314,-9.892,-1.505
37.393514,-0.275,-9.93,-1.512
37.403315,-0.275,-9.892,-1.505
37.413116,-0.314,-9.924,-1.551
37.422917,-0.235,-9.892,-1.505
37.432718,-0.275,-9.93,-1.512
37.442519,-0.235,-9.962,-1.557
37.45232,-0.196,-9.944,-1.435
37.462121,-0.157,-9.944,-1.435
37.471922,-0.118,-9.951,-1.396
37.481723,-0.118,-10.017,-1.248
37.491563,-0.118,-10.055,-1.255
37.501403,-0.118,-10.06,-1.455
37.511243,-0.118,-10.06,-1.455
37.521083,-0.118,-10.021,-1.448
37.530923,-0.078,-10.035,-1.371
37.540763,-0.118,-10.067,-1.417
37.550603,-0.078,-10.042,-1.332
37.560443,-0.078,-10.035,-1.371
37.570283,-0.078,-10.067,-1.417
37.580123,-0.039,-10.048,-1.294
37.589963,-0.078,-10.035,-1.371
37.599803,-0.078,-9.976,-1.48
37.609643,-0.039,-10.003,-1.326
37.619499,-0.078,-9.962,-1.557
37.629355,-0.118,-9.996,-1.364
37.639211,-0.118,-10.028,-1.41
37.649067,-0.118,-10.073,-1.378
37.658923,-0.118,-10.073,-1.378
37.668779,-0.118,-10.126,-1.307
37.678635,-0.157,-10.119,-1.346
37.688491,-0.157,-10.035,-1.371
37.698347,-0.118,-9.996,-1.364
37.708203,-0.118,-9.939,-1.235
37.718059,-0.118,-9.88,-1.344
37.727915,-0.078,-9.88,-1.344
37.737771,-0.078,-9.905,-1.428
37.747627,-0.078,-9.964,-1.319
37.757529,-0.078,-9.998,-1.126
37.767431,-0.078,-10.076,-1.139
37.777333,-0.078,-10.055,-1.255
37.787235,-0.078,-10.048,-1.294
37.797137,-0.039,-10.048,-1.294
37.807039,-0.039,-10.119,-1.346
37.816941,-0.039,-10.094,-1.262
37.826843,-0.039,-10.126,-1.307
37.836745,-0.039,-10.094,-1.262
37.846647,-0.039,-10.033,-1.61
37.856549,0.0,-10.035,-1.371
37.866451,0.0,-10.067,-1.417
37.876353,0.039,-9.989,-1.403
37.886303,0.0,-9.989,-1.403
37.896253,0.039,-9.964,-1.319
37.906203,0.118,-9.989,-1.403
37.916153,0.157,-9.996,-1.364
37.926103,0.157,-9.983,-1.442
37.936053,0.196,-9.983,-1.442
37.946003,0.196,-10.021,-1.448
37.955953,0.235,-9.996,-1.364
37.965903,0.314,-9.958,-1.357
37.975853,0.314,-9.944,-1.435
37.985803,0.353,-9.983,-1.442
37.995753,0.314,-9.989,-1.403
38.005703,0.353,-9.989,-1.403
38.015673,0.392,-9.989,-1.403
38.025643,0.353,-9.93,-1.512
38.035613,0.353,-9.951,-1.396
38.045583,0.314,-9.944,-1.435
38.055553,0.275,-9.983,-1.442
38.065523,0.235,-9.996,-1.364
38.075493,0.196,-10.035,-1.371
38.085463,0.157,-10.035,-1.371
38.095433,0.118,-9.996,-1.364
38.105403,0.118,-9.958,-1.357
38.115373,0.039,-9.919,-1.351
38.125343,0.0,-9.919,-1.351
38.135313,-0.039,-9.951,-1.396
38.145283,-0.078,-9.971,-1.28
38.155262,-0.078,-9.962,-1.557
38.165241,-0.078,-10.028,-1.41
38.17522,-0.118,-10.062,-1.217
38.185199,-0.118,-10.042,-1.332
38.195178,-0.157,-10.08,-1.339
38.205157,-0.157,-10.028,-1.41
38.215136,-0.157,-10.042,-1.332
38.225115,-0.157,-10.055,-1.255
38.235094,-0.157,-10.01,-1.287
38.245073,-0.157,-9.989,-1.403
38.255052,-0.157,-10.003,-1.326
38.265031,-0.118,-9.989,-1.403
38.27501,-0.118,-9.958,-1.357
38.28502,-0.078,-9.969,-1.519
38.29503,-0.118,-9.983,-1.442
38.30504,-0.118,-9.989,-1.403
38.31505,-0.157,-9.983,-1.442
38.32506,-0.118,-9.989,-1.403
38.33507,-0.118,-10.042,-1.332
38.34508,-0.118,-9.996,-1.364
38.35509,-0.118,-9.983,-1.442
38.3651,-0.118,-9.983,-1.442
38.37511,-0.118,-9.958,-1.357
38.38512,-0.078,-9.989,-1.403
38.39513,-0.118,-9.989,-1.403
38.40514,-0.157,-10.021,-1.448
38.415181,-0.078,-9.962,-1.557
38.425222,-0.078,-9.976,-1.48
38.435263,-0.078,-9.983,-1.442
38.445304,-0.118,-9.955,-1.596
38.455345,-0.118,-9.93,-1.512
38.465386,-0.078,-9.955,-1.596
38.475427,-0.078,-9.962,-1.557
38.485468,-0.078,-9.917,-1.589
38.495509,-0.078,-9.924,-1.551
38.50555,-0.078,-9.892,-1.505
38.515591,-0.118,-9.846,-1.537
38.525632,-0.157,-9.853,-1.498
38.535673,-0.157,-9.867,-1.421
38.545693,-0.078,-9.926,-1.312
38.555713,-0.118,-9.899,-1.467
38.565733,-0.118,-9.899,-1.467
38.575753,-0.118,-9.905,-1.428
38.585773,-0.118,-9.958,-1.357
38.595793,-0.078,-9.944,-1.435
38.605813,-0.078,-9.937,-1.473
38.615833,-0.039,-9.962,-1.557
38.625853,-0.039,-9.976,-1.48
38.635873,0.0,-10.085,-1.539
38.645893,0.0,-10.046,-1.532
38.655913,-0.039,-10.001,-1.564
38.665933,0.0,-10.014,-1.487
38.675953,0.0,-10.035,-1.371
38.685955,0.078,-9.976,-1.48
38.695957,0.078,-9.996,-1.364
38.705959,0.039,-10.028,-1.41
38.715961,0.039,-9.976,-1.48
38.725963,0.039,-9.962,-1.557
38.735965,0.078,-10.014,-1.487
38.745967,0.0,-10.008,-1.526
38.755969,0.039,-9.969,-1.519
38.765971,0.0,-9.962,-1.557
38.775973,-0.039,-9.976,-1.48
38.785975,-0.078,-9.976,-1.48
38.795977,-0.078,-10.003,-1.326
38.805979,-0.078,-9.983,-1.442
38.815967,0.0,-10.042,-1.332
38.825955,-0.078,-9.958,-1.357
38.835943,-0.078,-9.937,-1.473
38.845931,-0.078,-9.969,-1.519
38.855919,-0.118,-9.969,-1.519
38.865907,-0.118,-9.983,-1.442
38.875895,-0.118,-9.944,-1.435
38.885883,-0.118,-9.983,-1.442
38.895871,-0.118,-9.976,-1.48
38.905859,-0.078,-9.969,-1.519
38.915847,-0.078,-10.008,-1.526
38.925835,-0.078,-9.962,-1.557
38.935823,-0.078,-10.001,-1.564
38.945813,-0.039,-9.987,-1.642
38.955803,-0.078,-9.987,-1.642
38.965793,-0.078,-10.014,-1.487
38.975783,-0.118,-10.008,-1.526
38.985773,-0.157,-10.014,-1.487
38.995763,-0.118,-10.005,-1.764
39.005753,-0.157,-9.976,-1.48
39.015743,-0.157,-9.969,-1.519
39.025733,-0.157,-9.917,-1.589
39.035723,-0.157,-9.976,-1.48
39.045713,-0.157,-9.924,-1.551
39.055703,-0.157,-9.937,-1.473
39.065693,-0.157,-9.917,-1.589
39.075683,-0.196,-9.924,-1.551
39.085673,-0.235,-9.91,-1.628
39.095665,-0.235,-9.962,-1.557
39.105657,-0.196,-9.967,-1.757
39.115649,-0.157,-9.955,-1.596
39.125641,-0.157,-9.962,-1.557
39.135633,-0.157,-10.001,-1.564
39.145625,-0.157,-9.942,-1.673
39.155617,-0.157,-9.987,-1.642
39.165609,-0.157,-9.969,-1.519
39.175601,-0.157,-9.917,-1.589
39.185593,-0.196,-9.871,-1.621
39.195585,-0.157,-9.885,-1.544
39.205577,-0.118,-9.885,-1.544
39.215569,-0.157,-9.903,-1.667
39.225547,-0.078,-9.949,-1.635
39.235525,-0.118,-9.994,-1.603
39.245503,-0.118,-9.994,-1.603
39.255481,-0.118,-9.974,-1.719
39.265459,-0.078,-9.987,-1.642
39.275437,-0.118,-9.949,-1.635
39.285415,-0.118,-9.91,-1.628
39.295393,-0.078,-9.903,-1.667
39.305371,-0.157,-9.924,-1.551
