Time,GyroscopeX,GyroscopeY,GyroscopeZ 
-0.042411,15.54,-1.901,7.555
-0.031804,14.7,-1.357,7.295
-0.021197,13.93,-1.325,7.514
-0.01059,13.16,-1.438,8.56
1.7E-5,12.11,-1.621,9.594
0.010624,11.13,-2.298,10.612
0.021231,9.87,-3.044,11.618
0.031838,8.47,-3.83,12.048
0.042445,7.14,-4.313,11.963
0.053052,6.02,-5.035,11.622
0.063659,4.55,-5.079,10.264
0.074266,3.22,-4.95,8.723
0.084873,2.17,-3.827,6.789
0.09548,1.19,-3.604,5.122
0.106087,0.77,-3.588,4.627
0.116694,0.42,-3.284,4.112
0.127301,0.21,-3.649,3.764
0.137908,0.28,-3.795,3.382
0.148528,0.42,-4.16,3.034
0.159148,0.0,-4.456,2.697
0.169768,-0.35,-4.339,2.434
0.180388,-0.56,-3.994,2.494
0.191008,-0.7,-3.597,1.854
0.201628,-0.77,-3.26,1.558
0.212248,-0.56,-2.664,1.805
0.222868,-0.84,-2.396,1.497
0.233488,-0.77,-1.638,1.63
0.244108,-0.49,-1.638,1.63
0.254728,-0.35,-1.285,2.048
0.265341,-0.7,-1.589,2.563
0.275954,-0.98,-1.488,2.794
0.286567,-0.91,-1.289,2.474
0.29718,-1.19,-1.241,2.198
0.307793,-0.98,-1.228,2.129
0.318406,-1.12,-1.439,2.518
0.329019,-0.56,-2.1,3.042
0.339632,-0.21,-2.668,3.439
0.350245,0.0,-2.862,3.334
0.360858,0.63,-2.575,2.105
0.371471,1.4,-2.409,0.357
0.382084,1.19,-2.543,-1.301
0.392697,0.98,-1.991,-2.412
0.403302,0.84,-2.474,-2.498
0.413907,0.91,-3.285,-1.93
0.424512,0.84,-4.035,-1.707
0.435117,0.98,-4.692,-1.609
0.445722,1.68,-5.093,-1.751
0.456327,2.38,-4.603,-2.518
0.466932,2.8,-4.25,-3.308
0.477537,3.85,-3.739,-3.787
0.488142,4.69,-2.977,-4.079
0.498747,5.11,-1.619,-4.124
0.509352,5.81,-0.982,-4.509
0.519957,5.67,-0.057,-4.915
0.530536,5.53,1.256,-5.109
0.541115,5.74,2.469,-5.535
0.551694,5.39,3.215,-5.333
0.562273,4.97,4.435,-5.402
0.572852,4.27,4.91,-5.674
0.583431,3.08,5.299,-5.463
0.59401,1.89,5.895,-5.216
0.604589,0.91,6.09,-3.902
0.615168,0.35,5.466,-2.377
0.625747,0.07,4.598,-0.682
0.636326,-0.21,3.828,0.462
0.646905,-0.98,2.899,1.293
0.657484,-0.91,1.732,1.869
0.668027,-0.84,0.876,2.287
0.67857,-0.42,0.227,2.741
0.689113,-0.28,-0.932,2.466
0.699656,0.21,-1.451,2.587
0.710199,0.56,-2.035,2.271
0.720742,0.63,-2.408,1.566
0.731285,0.77,-2.786,1.286
0.741828,1.61,-2.275,0.807
0.752371,2.17,-1.715,0.053
0.762914,2.8,-1.504,-0.336
0.773457,3.43,-0.819,-0.997
0.784,3.85,-0.393,-0.993
0.794543,3.29,-0.519,-1.087
0.805086,2.66,-0.515,-0.304
0.815598,1.47,-0.608,1.03
0.82611,0.21,-0.819,2.628
0.836622,-0.56,-1.686,4.323
0.847134,-1.75,-2.578,6.156
0.857646,-2.17,-3.608,7.965
0.868158,-2.38,-4.625,9.704
0.87867,-2.1,-5.258,10.872
0.889182,-1.96,-5.988,11.383
0.899694,-1.54,-6.835,12.158
0.910206,-0.7,-7.541,12.531
0.920718,-0.14,-8.291,12.754
0.93123,0.91,-8.672,12.9
0.941684,1.89,-9.223,12.803
0.952138,2.66,-9.471,12.191
0.962592,3.22,-9.576,11.177
0.973046,3.57,-9.479,9.417
0.9835,3.92,-8.579,7.941
0.993954,3.92,-7.598,6.408
1.004408,3.29,-6.836,4.907
1.014862,2.59,-6.037,3.2
1.025316,1.54,-4.643,1.74
1.03577,0.42,-4.245,1.099
1.046224,-0.98,-3.872,1.805
1.056678,-2.03,-3.872,3.013
1.067132,-2.8,-4.156,3.816
1.077551,-3.08,-3.973,3.991
1.08797,-2.24,-3.884,4.291
1.098389,-1.33,-2.939,4.173
1.108808,-0.28,-2.623,3.589
1.119227,0.63,-2.222,3.731
1.129646,1.68,-1.463,3.865
1.140065,2.38,-0.855,4.043
1.150484,2.8,-1.021,4.582
1.160903,2.45,-1.358,4.878
1.171322,2.1,-0.636,5.219
1.181741,1.54,-0.579,5.3
1.19216,1.33,-0.255,5.073
1.202579,0.14,0.151,4.789
1.212986,-0.98,0.548,4.148
1.223393,-2.1,0.957,3.438
1.2338,-3.36,0.71,2.826
1.244207,-4.13,0.146,2.798
1.254614,-4.69,-0.178,3.025
1.265021,-5.18,-0.742,2.997
1.275428,-5.46,-1.131,2.786
1.285835,-5.39,-1.638,1.63
1.296242,-5.18,-1.472,1.091
1.306649,-4.69,-1.338,0.333
1.317056,-4.41,-1.403,-0.105
1.327463,-3.92,-1.277,-0.012
1.337839,-3.5,-0.937,0.475
1.348215,-2.66,-1.168,0.576
1.358591,-2.8,-1.444,0.527
1.368967,-3.01,-1.375,0.54
1.379343,-2.59,-1.123,0.726
1.389719,-2.31,-1.054,0.738
1.400095,-1.89,-0.872,0.912
1.410471,-0.91,-0.559,0.754
1.420847,-0.28,-0.223,0.458
1.431223,0.28,0.02,0.288
1.441599,1.12,0.365,0.349
1.451975,1.33,0.389,0.211
1.462351,1.61,0.134,0.45
1.472727,1.61,0.26,0.543
1.483103,1.61,0.608,0.178
1.493479,1.82,0.612,-0.247
1.503855,2.24,0.86,-0.844
1.514231,2.59,1.001,-1.245
1.524607,3.01,1.115,-1.083
1.534983,3.5,0.782,-1.213
1.545359,3.78,0.588,-1.318
1.555735,3.71,0.766,-0.718
1.566111,3.43,1.05,-0.312
1.576487,3.01,1.565,-0.008
1.586863,2.8,1.44,-0.102
1.597231,2.45,1.257,-0.276
1.607599,2.31,2.165,-0.187
1.617967,2.1,2.161,0.239
1.628335,1.75,2.721,0.693
1.638703,1.26,3.191,0.847
1.649071,1.19,3.504,0.689
1.659439,1.26,3.666,0.575
1.669807,1.4,4.375,0.985
1.680175,1.75,4.854,1.496
1.690543,1.82,5.292,1.431
1.700911,2.17,5.259,1.212
1.711279,2.45,5.584,0.985
1.721647,2.73,6.431,1.418
1.732053,3.08,6.959,1.653
1.742459,3.08,8.118,1.929
1.752865,2.94,9.753,1.933
1.763271,3.01,11.147,1.681
1.773677,2.66,13.386,1.081
1.784083,2.17,15.608,0.975
1.794489,1.47,18.32,0.103
1.804895,1.12,20.924,-1.357
1.815301,0.7,23.429,-2.266
1.825707,0.28,25.773,-3.061
1.836113,0.28,27.646,-4.01
1.846519,0.63,29.52,-4.959
1.856964,1.19,31.073,-6.107
1.867409,1.82,32.293,-7.385
1.877854,2.66,33.886,-7.957
1.888299,3.57,35.135,-8.589
1.898744,4.97,36.558,-9.405
1.909189,5.67,38.91,-11.051
1.919634,5.88,41.765,-13.533
1.930079,5.67,44.136,-16.1
1.940524,5.6,46.196,-18.509
1.950969,5.04,48.584,-20.363
1.961414,4.13,50.315,-22.119
1.971859,3.29,51.775,-24.349
1.982314,3.15,52.808,-26.584
1.992769,3.22,53.177,-27.869
2.003224,3.43,52.869,-28.137
2.013679,3.64,52.374,-28.153
2.024134,4.55,50.943,-27.695
2.034589,5.39,49.422,-27.536
2.045044,6.86,47.979,-27.009
2.055499,7.63,46.487,-27.414
2.065954,7.84,45.988,-28.213
2.076409,8.12,44.889,-30.042
2.086864,7.84,44.215,-31.866
2.097319,7.56,43.708,-33.022
2.107774,6.93,42.856,-34.238
2.118249,6.44,41.879,-35.548
2.128724,5.74,39.989,-36.521
2.139199,5.04,38.027,-37.08
2.149674,4.9,35.176,-37.441
2.160149,4.34,32.094,-37.7
2.170624,4.27,29.089,-37.59
2.181099,3.92,25.663,-37.91
2.191574,3.57,22.131,-38.035
2.202049,3.22,18.769,-37.917
2.212524,2.59,15.164,-37.628
2.222999,2.31,11.661,-37.109
2.233474,1.89,8.417,-36.046
2.243949,1.75,4.817,-34.975
2.254444,2.1,1.783,-34.301
2.264939,2.59,-0.946,-34.143
2.275434,3.36,-2.965,-33.575
2.285929,3.43,-4.161,-33.644
2.296424,3.64,-5.256,-33.481
2.306919,3.43,-6.144,-33.283
2.317414,3.43,-6.926,-32.07
2.327909,2.94,-6.95,-30.724
2.338404,2.52,-8.382,-29.057
2.348899,1.4,-9.748,-26.952
2.359394,-0.14,-11.702,-24.738
2.369889,-1.54,-13.956,-22.434
2.380414,-2.73,-16.004,-20.094
2.390939,-3.85,-18.441,-17.965
2.401464,-4.48,-20.606,-15.361
2.411989,-5.18,-22.507,-12.64
2.422514,-6.37,-24.303,-10.114
2.433039,-6.86,-24.96,-7.6
2.443564,-7.28,-25.43,-5.337
2.454089,-8.33,-25.64,-3.739
2.464614,-8.82,-25.49,-2.575
2.475139,-9.03,-25.421,-1.355
2.485664,-8.4,-25.615,-0.252
2.496189,-7.49,-26.098,0.871
2.50672,-6.86,-27.415,2.7
2.517251,-5.88,-28.745,4.598
2.527782,-5.04,-29.998,6.865
2.538313,-3.92,-31.084,8.593
2.548844,-2.94,-31.79,10.174
2.559375,-2.24,-32.678,11.582
2.569906,-1.33,-33.046,14.075
2.580437,-0.49,-34.039,16.886
2.590968,0.28,-34.505,18.723
2.601499,0.56,-34.307,19.611
2.61203,0.77,-33.366,19.919
2.622561,0.91,-32.457,20.008
2.633092,0.77,-31.253,20.433
2.643623,-0.42,-30.637,20.969
2.654181,-2.38,-30.247,21.179
2.664739,-5.32,-29.675,21.565
2.675297,-7.91,-28.848,21.71
2.685855,-11.06,-28.041,21.568
2.696413,-14.7,-27.299,20.988
2.706971,-18.76,-27.003,20.117
2.717529,-23.66,-27.478,20.388
2.728087,-28.28,-28.009,20.579
2.738645,-32.27,-28.727,21.021
2.749203,-35.35,-29.566,22.152
2.759761,-37.52,-30.284,22.595
2.770304,-39.06,-31.139,23.012
2.780847,-40.11,-32.108,23.268
2.79139,-40.67,-33.564,23.864
2.801933,-41.23,-34.533,24.12
2.812476,-41.79,-35.109,24.16
2.823019,-41.86,-35.194,23.435
2.833562,-40.6,-35.073,21.537
2.844105,-39.2,-34.12,19.359
2.854648,-37.17,-32.652,17.486
2.865191,-35.28,-32.04,16.03
2.875734,-33.74,-31.898,15.628
2.886277,-32.41,-32.276,15.349
2.89682,-31.22,-32.198,15.718
2.907372,-30.8,-32.166,15.937
2.917924,-30.17,-31.862,15.422
2.928476,-30.17,-31.534,14.769
2.939028,-29.89,-30.69,14.42
2.94958,-29.47,-29.352,14.087
2.960132,-29.33,-28.245,13.856
2.970684,-28.98,-27.28,14.026
2.981236,-28.21,-26.266,13.92
2.991788,-27.37,-25.666,13.742
3.00234,-26.6,-25.058,13.92
3.012892,-25.97,-24.462,14.167
3.023444,-25.27,-23.76,14.22
3.033998,-24.85,-23.472,14.2
3.044552,-24.29,-22.779,13.896
3.055106,-23.66,-22.503,13.944
3.06566,-23.31,-21.81,13.64
3.076214,-22.75,-21.299,13.161
3.086768,-22.19,-21.019,12.784
3.097322,-21.49,-20.922,12.233
3.107876,-20.93,-21.023,12.002
3.11843,-20.16,-20.667,11.993
3.128984,-18.13,-21.105,12.058
3.139538,-17.01,-21.757,12.938
3.150092,-15.89,-22.317,13.693
3.160646,-14.56,-23.902,15.83
3.171234,-13.51,-24.68,17.825
3.181822,-11.76,-24.088,17.29
3.19241,-10.29,-23.93,15.185
3.202998,-9.38,-23.537,14.97
3.213586,-9.17,-22.621,15.416
3.224174,-9.45,-21.331,15.359
3.234762,-9.59,-20.228,14.345
3.24535,-10.22,-18.959,12.792
3.255938,-10.85,-17.354,10.943
3.266526,-11.2,-15.959,9.483
3.277114,-11.27,-15.456,8.647
3.287702,-11.55,-15.027,8.226
3.298335,-11.62,-14.942,7.743
3.308968,-11.76,-15.886,7.861
3.319601,-11.06,-16.511,8.177
3.330234,-10.22,-16.953,8.668
3.340867,-9.94,-17.232,9.045
3.3515,-9.31,-17.419,9.296
3.362133,-8.68,-17.439,9.009
3.372766,-7.98,-16.949,8.242
3.383399,-7.14,-16.738,7.853
3.394032,-6.86,-16.093,7.824
3.404665,-6.93,-15.343,7.601
3.415298,-6.86,-14.256,7.082
3.425966,-6.51,-13.831,7.086
3.436634,-6.44,-13.453,7.366
3.447302,-6.3,-12.857,7.613
3.45797,-5.88,-12.237,7.722
3.468638,-5.18,-12.075,7.609
3.479306,-4.9,-11.738,7.313
3.489974,-4.55,-10.907,7.033
3.500642,-4.27,-10.368,7.199
3.51131,-3.99,-10.031,6.903
3.521978,-3.99,-9.451,6.437
3.532646,-4.27,-8.539,6.1
3.543314,-3.99,-7.846,5.796
3.553982,-4.2,-7.104,5.216
3.564662,-4.13,-6.645,5.439
3.575342,-3.99,-6.082,5.467
3.586022,-4.34,-5.518,5.495
3.596702,-4.62,-4.598,5.515
3.607382,-4.34,-3.839,5.649
3.618062,-4.2,-3.884,5.499
3.628742,-3.57,-3.02,5.438
3.639422,-3.22,-2.303,4.996
3.650102,-2.59,-1.966,4.7
3.660782,-2.17,-1.581,5.337
3.671462,-2.45,-1.045,5.929
3.682142,-2.87,-0.911,6.379
3.692822,-3.57,-0.336,6.338
3.7035,-4.06,0.029,6.687
3.714178,-4.55,0.629,6.508
3.724856,-4.83,1.23,6.33
3.735534,-4.69,1.708,5.632
3.746212,-4.97,2.495,5.202
3.75689,-4.62,2.474,4.914
3.767568,-4.48,2.373,4.683
3.778246,-4.2,2.284,4.383
3.788924,-3.78,1.833,4.517
3.799602,-3.71,1.168,4.258
3.81028,-3.43,0.714,4.817
3.820958,-3.36,0.26,5.377
3.83166,-3.64,-0.36,5.267
3.842362,-3.29,-1.329,5.523
3.853064,-2.66,-1.086,5.353
3.863766,-2.24,-1.528,4.635
3.874468,-2.1,-1.78,4.449
3.88517,-1.75,-2.25,4.295
3.895872,-1.61,-2.582,4.165
3.906574,-1.19,-2.814,4.266
3.917276,-1.12,-3.41,4.019
3.927978,-0.91,-3.673,3.901
3.93868,-0.7,-3.681,3.545
3.949382,-0.63,-4.269,3.654
3.960092,-0.28,-4.419,3.699
3.970802,-0.28,-4.991,3.314
3.981512,-0.28,-5.06,3.301
3.992222,-0.49,-5.19,3.634
4.002932,-0.56,-5.097,3.508
4.013642,-0.49,-5.587,3.066
4.024352,-0.7,-5.462,3.16
4.035062,-0.98,-5.608,2.778
4.045772,-1.12,-5.482,2.872
4.056482,-1.82,-5.401,2.815
4.067192,-2.03,-5.113,2.795
4.077902,-2.17,-5.275,2.908
4.088612,-2.52,-5.287,2.977
4.099314,-2.66,-5.502,2.584
4.110016,-2.8,-6.115,2.831
4.120718,-3.5,-6.751,3.217
4.13142,-3.57,-7.412,3.74
4.142122,-4.41,-7.639,4.624
4.152824,-4.62,-8.9,5.325
4.163526,-5.18,-9.638,5.48
4.174228,-5.46,-9.995,5.488
4.18493,-5.6,-10.335,5.001
4.195632,-5.32,-10.494,4.689
4.206334,-4.9,-10.826,4.559
4.217036,-4.34,-11.386,5.314
4.227688,-3.99,-12.707,6.36
4.23834,-3.85,-13.624,7.122
4.248992,-3.15,-14.524,7.39
4.259644,-2.8,-15.574,7.703
4.270296,-1.75,-16.219,7.731
4.280948,-1.26,-16.462,7.901
4.2916,-0.49,-16.251,7.512
4.302252,0.0,-16.109,7.111
4.312904,0.84,-15.643,6.482
4.323556,1.47,-15.372,5.748
4.334208,1.82,-15.372,5.748
4.34486,1.96,-15.234,5.772
4.355512,1.89,-15.384,5.817
4.366096,1.89,-15.558,5.999
4.37668,1.96,-15.651,6.125
4.387264,2.1,-15.951,6.214
4.397848,2.31,-16.077,6.121
4.408432,2.24,-16.183,6.316
4.419016,2.52,-16.71,6.081
4.4296,3.22,-17.136,6.077
4.440184,4.06,-17.127,6.434
4.450768,5.04,-17.184,6.353
4.461352,5.81,-17.172,6.284
4.471936,6.65,-17.355,6.109
4.48252,7.35,-17.375,5.821
4.493104,8.05,-17.383,5.464
4.503651,8.89,-17.444,5.809
4.514198,9.1,-17.505,6.154
4.524745,9.24,-16.746,6.288
4.535292,9.73,-16.734,6.219
4.545839,9.87,-16.142,5.683
4.556386,9.66,-15.583,4.929
4.566933,9.52,-14.103,4.195
4.57748,9.03,-12.935,3.619
4.588027,8.61,-11.556,2.654
4.598574,8.19,-10.494,2.272
4.609121,7.42,-9.05,1.745
4.619668,6.72,-7.51,1.874
4.630151,5.74,-6.374,2.288
4.640634,4.69,-5.137,2.932
4.651117,3.64,-3.981,3.634
4.6616,2.24,-2.631,4.441
4.672083,1.26,-0.713,4.85
4.682566,0.35,0.589,4.724
4.693049,-0.14,1.943,5.105
4.703532,-0.7,3.395,4.934
4.714015,-1.05,4.502,4.703
4.724498,-0.91,5.588,4.184
4.734981,-1.05,6.675,3.665
4.745464,-0.21,7.624,3.121
4.755947,0.7,8.39,2.403
4.766396,1.89,8.937,1.718
4.776845,2.87,9.456,1.596
4.787294,3.78,10.024,1.199
4.797743,4.27,10.162,1.223
4.808192,4.69,9.663,1.633
4.818641,4.41,9.517,2.46
4.82909,3.92,8.99,3.433
4.839539,3.22,8.407,4.326
4.849988,2.87,7.697,5.124
4.860437,2.59,7.811,5.287
4.870886,1.82,8.5,5.408
4.881335,1.26,9.149,4.954
4.891741,1.4,9.789,4.143
4.902147,1.12,10.779,2.967
4.912553,0.7,11.808,2.366
4.922959,0.49,12.506,1.636
4.933365,0.35,13.244,1.482
4.943771,0.49,13.572,2.038
4.954177,0.84,14.221,2.792
4.964583,0.91,14.716,2.808
4.974989,0.98,15.259,2.548
4.985395,1.19,15.701,2.058
4.995801,0.7,16.309,2.236
5.006207,0.28,16.975,2.496
5.016613,0.14,17.891,2.941
5.02701,0.28,18.292,3.083
5.037407,0.0,19.059,3.574
5.047804,0.0,19.278,3.541
5.058201,-0.07,19.517,3.797
5.068598,0.21,19.655,3.821
5.078995,0.21,19.979,3.594
5.089392,0.14,19.979,3.594
5.099789,0.35,20.105,3.687
5.110186,0.7,20.073,3.468
5.120583,0.14,19.983,3.168
5.13098,-0.07,19.781,2.706
5.141377,-0.49,19.452,2.15
5.151746,0.0,19.144,1.883
5.162115,0.07,18.961,1.709
5.172484,-0.21,18.276,1.161
5.182853,-0.21,17.327,0.496
5.193222,0.21,16.329,0.107
5.203591,0.77,15.373,0.294
5.21396,0.84,14.241,0.663
5.224329,1.26,12.907,0.57
5.234698,1.61,12.128,0.148
5.245067,2.24,11.37,0.015
5.255436,2.52,10.024,-0.01
5.265805,2.52,8.848,0.21
5.276174,3.15,7.895,-0.029
5.286513,3.36,7.413,-0.115
5.296852,3.01,6.415,-0.504
5.307191,2.8,5.839,-0.463
5.31753,2.73,5.369,-0.617
5.327869,2.45,4.992,-0.897
5.338208,2.24,4.927,-1.335
5.348547,1.82,5.02,-1.46
5.358886,1.26,5.628,-1.282
5.369225,0.84,6.066,-1.347
5.379564,-0.07,6.889,-1.984
5.389903,-0.91,7.655,-2.702
5.400242,-1.68,8.365,-3.501
5.410581,-2.24,9.034,-3.667
5.420936,-2.52,9.346,-3.825
5.431291,-3.22,9.752,-4.109
5.441646,-2.94,9.89,-4.085
5.452001,-3.01,10.027,-4.06
5.462356,-3.29,10.23,-3.598
5.472711,-3.57,10.028,-2.852
5.483066,-3.15,10.255,-2.528
5.493421,-3.36,10.141,-2.69
5.503776,-3.43,10.016,-1.575
5.514131,-2.8,10.101,-0.849
5.524486,-2.17,10.332,-0.95
5.534841,-1.54,10.206,-1.044
5.545196,-1.05,10.518,-1.202
5.555553,-0.56,10.859,-0.715
5.56591,-0.42,10.989,0.161
5.576267,0.35,10.717,0.895
5.586624,0.56,10.089,1.637
5.596981,0.98,9.736,2.428
5.607338,1.82,9.043,2.732
5.617695,2.73,8.232,3.3
5.628052,3.36,8.216,3.794
5.638409,4.13,8.24,3.656
5.648766,4.62,8.54,3.567
5.659123,4.76,8.504,3.774
5.66948,5.11,8.804,3.685
5.679837,5.25,9.392,3.575
5.690194,5.11,10.162,3.64
5.700551,5.32,10.499,3.344
5.710908,5.67,11.334,2.638
5.721265,4.69,12.141,2.496
5.731622,3.99,12.984,2.147
5.741979,3.01,13.726,1.567
5.752336,2.03,14.493,0.85
5.762693,0.91,15.385,0.225
5.77305,0.0,16.058,0.841
5.783407,-0.98,16.277,0.809
5.793764,-2.17,16.046,0.91
5.804121,-3.64,16.139,0.784
5.814478,-4.83,16.175,0.578
5.824893,-6.51,16.751,0.537
5.835308,-7.56,17.724,-0.144
5.845723,-8.4,19.196,-1.235
5.856138,-7.84,21.471,-3.251
5.866553,-6.72,23.51,-4.74
5.876968,-4.41,25.898,-6.593
5.887383,-2.31,28.465,-9.055
5.897798,-0.7,31.088,-12.644
5.908213,1.19,33.707,-15.807
5.918628,3.71,35.256,-17.737
5.929043,5.95,35.856,-17.916
5.939495,7.84,35.154,-16.76
5.949947,9.66,33.257,-14.465
5.960399,11.27,30.537,-11.533
5.970851,12.6,27.265,-8.698
5.981303,13.86,23.993,-5.863
5.991755,14.63,20.923,-3.774
6.002207,15.05,18.105,-1.499
6.012659,14.63,16.098,0.209
6.023111,13.58,14.452,1.482
6.033563,12.32,14.035,1.835
6.044015,11.06,13.69,0.566
6.054467,9.94,13.969,-1.02
6.064919,9.03,14.573,-2.832
6.075394,8.75,15.554,-4.365
6.085869,8.68,16.28,-5.659
6.096344,8.19,17.071,-6.515
6.106819,7.7,16.884,-7.472
6.117294,7.7,16.933,-7.747
6.127769,8.05,16.677,-7.508
6.138244,7.98,16.353,-7.281
6.148719,8.19,15.307,-7.394
6.159194,8.68,14.106,-7.037
6.169669,9.24,13.421,-6.376
6.180144,9.59,12.488,-6.328
6.190619,9.87,11.706,-6.323
6.201094,10.15,10.939,-6.814
6.211604,10.29,10.716,-7.564
6.222114,10.43,10.177,-7.73
6.232624,10.64,9.119,-7.775
6.243134,10.43,8.214,-7.081
6.253644,10.22,6.905,-6.104
6.264154,9.52,5.157,-5.061
6.274664,8.96,3.304,-3.824
6.285174,8.26,1.188,-2.705
6.295684,7.14,-0.584,-1.525
6.306194,5.81,-2.214,0.463
6.316704,4.13,-4.922,2.117
6.327214,2.94,-6.938,3.468
6.337776,2.03,-8.349,4.214
6.348338,1.75,-10.68,4.94
6.3589,1.75,-12.31,5.719
6.369462,2.24,-14.354,6.425
6.380024,3.08,-15.911,6.79
6.390586,3.64,-16.799,6.989
6.401148,4.34,-17.695,6.831
6.41171,4.55,-18.226,5.813
6.422272,4.48,-18.652,4.601
6.432834,3.92,-19.001,3.758
6.443396,3.36,-20.06,3.713
6.453958,3.08,-21.264,4.496
6.46452,2.87,-22.322,4.451
6.475095,1.96,-23.77,4.196
6.48567,1.4,-24.909,4.208
6.496245,1.4,-25.931,3.957
6.50682,1.54,-26.799,3.236
6.517395,1.19,-27.424,2.344
6.52797,0.91,-27.229,1.241
6.538545,0.77,-26.771,0.255
6.54912,0.7,-25.839,-1.002
6.559695,0.56,-24.638,-2.567
6.57027,0.35,-23.402,-4.34
6.580845,0.21,-22.238,-5.698
6.59142,-0.56,-20.629,-6.765
6.602033,-1.26,-19.331,-7.673
6.612646,-2.03,-17.867,-7.913
6.623259,-2.59,-16.205,-8.473
6.633872,-3.08,-14.567,-8.895
6.644485,-4.06,-13.877,-8.773
6.655098,-4.55,-13.293,-8.457
6.665711,-4.76,-13.512,-7.216
6.676324,-4.69,-14.664,-5.926
6.686937,-4.27,-16.143,-3.984
6.69755,-3.71,-17.51,-1.879
6.708163,-3.01,-19.184,-0.042
6.718776,-2.59,-21.078,1.828
6.729397,-1.82,-23.226,3.937
6.740018,-0.84,-25.319,6.127
6.750639,-0.14,-27.094,7.733
6.76126,0.63,-28.635,8.811
6.771881,1.4,-29.851,9.663
6.782502,2.1,-30.885,10.689
6.793123,2.87,-31.445,11.444
6.803744,3.36,-31.688,11.614
6.814365,3.43,-31.956,11.922
6.824986,3.78,-31.899,12.003
6.835607,3.71,-31.749,11.959
6.846228,3.08,-31.591,12.271
6.856849,2.52,-31.039,12.368
6.8675,1.61,-30.622,12.015
6.878151,0.84,-29.535,11.496
6.888802,0.42,-28.428,11.265
6.899453,-0.07,-27.378,10.952
6.910104,-0.84,-26.498,10.397
6.920755,-1.33,-25.614,9.415
6.931406,-1.33,-24.491,8.689
6.942057,-1.47,-23.603,8.49
6.952708,-1.89,-23.473,8.158
6.963359,-1.68,-23.891,8.511
6.97401,-1.26,-24.191,9.808
6.984661,-0.63,-24.527,10.104
6.995315,0.07,-24.503,9.967
7.005969,1.96,-25.979,9.067
7.016623,4.06,-29.377,8.183
7.027277,6.3,-32.897,7.989
7.037931,8.96,-37.017,7.973
7.048585,11.48,-41.713,7.998
7.059239,14.07,-46.129,7.646
7.069893,16.73,-50.293,7.48
7.080547,19.81,-53.951,7.262
7.091201,23.03,-56.797,6.476
7.101855,25.83,-59.486,6.002
7.112509,28.42,-61.728,5.819
7.123163,31.29,-63.76,5.248
7.133817,33.67,-65.305,5.544
7.144471,35.63,-66.063,6.619
7.155125,37.52,-66.01,7.126
7.165779,40.11,-65.126,7.353
7.176433,42.35,-64.275,7.361
7.187087,44.59,-62.701,7.709
7.197741,46.55,-60.67,8.281
7.208395,48.02,-58.184,8.292
7.219049,49.28,-55.426,8.779
7.229703,50.05,-52.969,9.354
7.240357,50.19,-49.753,10.063
7.251011,50.26,-46.594,10.691
7.261647,49.56,-42.904,11.129
7.272283,49.14,-39.056,10.67
7.282919,48.37,-35.581,9.506
7.293555,46.76,-31.964,7.94
7.304191,45.85,-28.149,6.054
7.314827,44.8,-24.264,4.18
7.325463,43.26,-20.206,2.124
7.336099,42.21,-16.463,0.651
7.346735,41.3,-13.296,-0.781
7.357371,39.69,-10.511,-2.067
7.368007,37.45,-8.151,-3.356
7.378643,33.95,-5.949,-4.958
7.389279,30.66,-3.302,-6.269
7.399915,27.65,-0.208,-7.287
7.410513,24.36,1.929,-8.118
7.421111,21.42,4.751,-8.403
7.431709,18.76,7.906,-8.557
7.442307,16.38,10.947,-7.665
7.452905,12.95,14.982,-7.167
7.463503,7.49,19.593,-7.918
7.474101,0.56,24.239,-10.084
7.484699,-7.42,28.967,-12.307
7.495297,-16.24,33.582,-13.483
7.505895,-24.15,38.046,-13.407
7.516493,-30.8,42.105,-13.047
7.527091,-36.05,45.248,-13.132
7.537689,-40.25,47.052,-14.094
7.548239,-44.24,47.908,-15.72
7.558789,-47.6,48.544,-17.313
7.569339,-49.7,49.399,-20.148
7.579889,-51.24,50.919,-23.932
7.590439,-52.57,53.477,-29.167
7.600989,-53.69,56.36,-34.629
7.611539,-54.25,58.962,-39.715
7.622089,-54.81,60.884,-42.148
7.632639,-54.95,61.934,-42.46
7.643189,-54.46,62.275,-40.765
7.653739,-52.92,61.566,-38.758
7.664289,-51.66,59.972,-36.978
7.674808,-49.91,57.904,-34.926
7.685327,-47.81,55.302,-32.257
7.695846,-45.36,51.957,-29.009
7.706365,-42.49,47.971,-26.157
7.716884,-40.18,43.053,-23.257
7.727403,-37.45,37.36,-19.996
7.737922,-34.72,31.197,-15.681
7.748441,-32.13,24.341,-11.061
7.75896,-30.1,17.375,-5.821
7.769479,-27.65,10.113,-0.918
7.779998,-25.34,3.317,3.357
7.790517,-24.43,-2.862,6.959
7.801036,-23.59,-9.134,10.686
7.811541,-22.82,-14.089,15.001
7.822046,-22.54,-17.734,18.339
7.832551,-22.26,-20.892,21.336
7.843056,-21.84,-22.437,22.841
7.853561,-22.26,-22.826,23.838
7.864066,-22.54,-22.469,23.83
7.874571,-23.1,-21.395,23.38
7.885076,-23.94,-20.312,23.287
7.895581,-24.85,-18.857,22.69
7.906086,-25.06,-16.89,21.615
7.916591,-24.99,-14.911,20.472
7.927096,-24.29,-12.892,18.695
7.937577,-23.1,-10.825,16.643
7.948058,-21.84,-8.623,13.833
7.958539,-20.79,-6.138,11.428
7.96902,-19.11,-4.013,8.248
7.979501,-17.5,-1.905,5.564
7.989982,-15.82,-0.45,3.759
8.000463,-14.07,1.051,2.104
8.010944,-12.25,2.263,0.47
8.021425,-10.64,2.656,-0.953
8.031906,-9.1,3.175,-2.283
8.042387,-7.42,3.977,-3.208
8.052868,-5.81,4.492,-4.112
8.063349,-4.27,5.011,-5.442
8.073818,-2.52,6.434,-6.258
8.084287,-2.17,6.495,-6.602
8.094756,-2.24,6.467,-6.039
8.105225,-2.45,6.43,-5.832
8.115694,-2.38,6.28,-5.787
8.126163,-2.24,6.057,-5.329
8.136632,-1.75,5.352,-4.956
8.147101,-1.61,4.35,-3.711
8.15757,-1.12,3.268,-2.409
8.168039,-0.49,2.53,-1.047
8.178508,-0.42,1.448,0.255
8.188977,-0.28,0.353,1.626
8.199454,-0.14,-0.129,2.749
8.209931,-0.14,-0.952,3.386
8.220408,-0.35,-1.755,4.311
8.230885,0.14,-2.266,4.789
8.241362,0.77,-2.643,4.51
8.251839,1.26,-2.753,3.922
8.262316,2.1,-2.587,3.382
8.272793,2.38,-2.639,2.875
8.28327,2.38,-2.498,2.474
8.293747,3.01,-2.218,2.097
8.304224,3.22,-1.82,1.456
8.314701,3.29,-1.63,1.987
8.325178,2.94,-0.928,2.04
8.335659,2.73,-1.09,2.153
8.34614,1.96,-1.09,2.153
8.356621,1.4,-0.438,2.482
8.367102,0.77,-0.774,2.778
8.377583,-0.35,-0.831,2.697
8.388064,-0.7,-0.786,2.847
8.398545,-1.19,-0.774,2.778
8.409026,-1.82,-1.034,3.443
8.419507,-2.1,-1.232,3.763
8.429988,-2.03,-1.289,3.682
8.440469,-2.24,-1.654,3.333
8.45095,-2.17,-1.711,3.252
8.461462,-2.17,-1.557,2.782
8.471974,-1.54,-1.046,2.303
8.482486,-1.12,-0.661,1.732
8.492998,-0.56,-0.482,1.123
8.50351,-0.07,-0.162,1.322
8.514022,0.7,-0.369,1.285
8.524534,1.33,-0.15,1.253
8.535046,1.54,-0.308,0.941
8.545558,1.61,-0.576,1.249
8.55607,0.77,-0.742,1.788
8.566582,0.63,-0.827,2.271
8.577094,0.35,-0.932,2.466
8.587603,0.21,-1.281,2.831
8.598112,0.42,-1.69,3.54
8.608621,1.12,-2.153,3.743
8.61913,1.61,-3.154,3.78
8.629639,2.38,-4.411,4.056
8.640148,2.87,-4.626,4.871
8.650657,2.59,-5.149,5.418
8.661166,2.59,-5.177,5.982
8.671675,2.52,-5.384,5.945
8.682184,2.31,-5.421,6.152
8.692693,1.96,-5.133,6.132
8.703202,2.17,-4.954,6.732
8.713711,2.17,-5.339,7.304
8.72422,2.73,-5.842,6.931
8.734757,3.15,-5.571,7.405
8.745294,4.2,-5.319,7.592
8.755831,4.62,-4.926,7.377
8.766368,5.04,-4.597,6.724
8.776905,6.58,-3.855,6.144
8.787442,8.61,-3.126,5.633
8.797979,11.06,-1.97,5.126
8.808516,14.77,-0.689,4.712
8.819053,19.25,1.44,3.524
8.82959,24.78,3.78,1.946
8.840127,31.29,6.407,0.348
8.850687,36.75,9.278,-0.212
8.861247,42.7,12.068,-0.715
8.871807,47.88,14.671,-0.967
8.882367,52.78,17.392,-1.482
8.892927,57.4,20.303,-1.467
8.903487,61.39,23.316,-1.22
8.914047,64.96,25.952,-1.253
8.924607,68.46,28.673,-0.56
8.935167,71.61,30.68,0.15
8.945727,74.9,32.671,1.354
8.956287,77.77,34.387,2.509
8.966847,80.85,35.839,3.547
8.977407,82.81,36.913,4.305
8.987978,83.79,38.15,3.741
8.998549,84.84,39.05,2.265
9.00912,84.7,39.114,0.287
9.019691,83.79,39.143,-1.486
9.030262,83.09,38.372,-2.759
9.040833,82.04,37.346,-3.793
9.051404,81.55,35.262,-4.871
9.061975,80.43,32.293,-4.968
9.072546,78.4,28.916,-4.355
9.083117,74.62,25.935,-3.175
9.093688,69.16,23.048,-3.328
9.104259,62.65,20.425,-3.364
9.114821,56.0,17.825,-3.538
9.125383,49.14,15.895,-3.879
9.135945,42.28,14.095,-3.343
9.146507,36.26,11.913,-3.87
9.157069,30.66,10.165,-4.036
9.167631,26.39,8.195,-3.744
9.178193,22.54,5.831,-3.237
9.188755,19.25,3.313,-2.259
9.199317,16.45,0.872,-0.912
9.209879,14.07,-1.079,0.876
9.220441,12.25,-3.021,1.813
9.231003,10.71,-5.068,1.736
9.241565,10.22,-6.277,1.736
9.25215,10.5,-6.857,0.994
9.262735,10.5,-7.368,0.265
9.27332,10.08,-7.441,-0.53
9.283905,9.87,-7.542,-0.761
9.29449,9.24,-7.449,-0.887
9.305075,8.33,-7.242,-0.851
9.31566,7.77,-6.979,-0.733
9.326245,7.63,-6.804,-0.915
9.33683,7.49,-6.472,-0.786
9.347415,6.51,-6.188,-0.38
9.358,5.18,-5.758,0.406
9.368585,3.15,-5.198,0.86
9.379163,0.42,-5.223,0.998
9.389741,-2.24,-5.194,1.643
9.400319,-5.04,-4.306,2.653
9.410897,-7.84,-4.014,3.415
9.421475,-10.36,-3.742,3.889
9.432053,-12.18,-3.511,3.788
9.442631,-14.0,-2.712,3.289
9.453209,-15.54,-2.506,3.325
9.463787,-16.8,-2.806,3.415
9.474365,-17.57,-3.0,3.309
9.484943,-17.71,-3.312,3.467
9.495521,-17.5,-3.783,3.313
9.506099,-16.59,-3.698,2.831
9.516671,-15.61,-4.12,2.401
9.527243,-14.77,-4.914,2.474
9.537815,-13.51,-5.519,1.87
9.548387,-12.04,-5.628,1.282
9.558959,-10.99,-6.042,1.209
9.569531,-9.59,-6.569,0.974
9.580103,-9.17,-6.861,1.42
9.590675,-9.1,-7.538,2.438
9.601247,-8.75,-7.834,3.31
9.611819,-8.61,-8.235,3.168
9.622391,-8.4,-8.762,2.933
9.632963,-9.03,-8.454,3.201
9.643535,-10.01,-8.037,2.848
9.654107,-12.11,-7.518,2.726
9.664679,-13.93,-7.445,2.312
9.675233,-15.89,-7.059,1.741
9.685787,-16.87,-6.585,1.469
9.696341,-17.78,-6.561,1.331
9.706895,-18.97,-6.683,0.812
9.717449,-20.58,-7.21,0.577
9.728003,-22.75,-7.717,0.63
9.738557,-25.97,-8.751,0.447
9.749111,-30.1,-9.878,0.391
9.759665,-34.16,-11.808,0.05
9.770219,-38.43,-13.296,-0.781
9.780773,-42.21,-15.49,-1.239
9.791338,-46.41,-17.579,-1.891
9.801903,-50.75,-19.793,-2.637
9.812468,-54.81,-22.1,-3.257
9.823033,-57.82,-24.351,-3.796
9.833598,-59.64,-26.313,-4.355
9.844163,-60.13,-27.854,-4.485
9.854728,-59.71,-29.059,-3.702
9.865293,-58.59,-29.561,-2.867
9.875858,-56.98,-29.695,-3.317
9.886423,-54.95,-29.947,-4.712
9.896988,-52.01,-29.606,-5.434
9.907553,-48.86,-28.767,-5.357
9.918104,-45.99,-27.712,-4.886
9.928655,-43.19,-26.877,-4.384
9.939206,-40.18,-26.042,-3.881
9.949757,-37.17,-25.592,-4.015
9.960308,-34.23,-25.121,-3.861
9.970859,-31.43,-24.16,-3.265
9.98141,-28.77,-23.053,-2.288
9.991961,-26.32,-21.792,-1.781
10.002512,-24.43,-20.393,-1.25
10.013063,-22.61,-18.783,-1.108
10.023614,-21.28,-17.234,-0.622
10.034165,-19.88,-15.364,0.063
10.044716,-18.9,-13.734,0.493
10.05526,-18.06,-11.877,1.247
10.065804,-17.5,-10.052,1.782
10.076348,-16.59,-8.329,2.085
10.086892,-15.82,-6.293,2.231
10.097436,-14.84,-4.914,2.474
10.10798,-13.86,-2.692,2.368
10.118524,-13.23,-0.872,2.121
10.129068,-12.81,1.091,1.472
10.139612,-12.46,2.66,1.038
10.150156,-11.69,4.01,0.636
10.1607,-11.48,4.457,0.928
10.171244,-10.78,4.846,1.139
10.181788,-9.94,5.608,0.847
10.192314,-9.24,5.689,-0.418
10.20284,-8.4,5.466,-1.169
10.213366,-7.56,5.194,-1.643
10.223892,-6.79,4.939,-1.404
10.234418,-6.3,4.002,-0.929
10.244944,-5.39,3.159,-0.58
10.25547,-5.25,1.744,0.592
10.265996,-5.74,-0.206,2.38
10.276522,-6.09,-2.173,4.664
10.287048,-6.3,-4.289,6.991
10.297574,-6.23,-6.888,8.026
10.3081,-6.51,-8.721,8.342
10.31863,-6.72,-10.416,8.683
10.32916,-6.16,-11.292,8.813
10.33969,-5.81,-12.383,8.55
10.35022,-5.25,-12.946,8.521
10.36075,-4.55,-13.242,8.185
10.37128,-4.2,-13.251,7.828
10.38181,-4.06,-13.336,7.102
10.39234,-4.06,-13.608,6.628
10.40287,-4.13,-13.125,6.713
10.4134,-4.06,-12.926,6.392
10.42393,-3.5,-12.391,5.776
10.43446,-2.8,-11.787,5.172
10.444959,-2.17,-11.033,4.523
10.455458,-0.7,-10.498,3.906
10.465957,0.7,-10.275,3.448
10.476456,1.4,-9.869,3.164
10.486955,2.03,-9.752,2.901
10.497454,2.17,-9.245,2.848
10.507953,2.31,-9.156,3.148
10.518452,1.96,-8.491,3.407
10.528951,1.96,-7.98,4.137
10.53945,2.1,-8.101,4.827
10.549949,2.03,-8.592,5.593
10.560448,2.52,-8.851,6.258
10.570947,3.5,-9.342,7.025
10.581446,4.41,-9.658,7.609
10.591945,4.06,-10.023,8.468
10.602439,3.71,-10.473,9.81
10.612933,3.08,-11.312,10.942
10.623427,2.52,-11.746,11.789
10.633921,2.52,-11.656,12.09
10.644415,2.17,-11.555,12.321
10.654909,2.52,-10.971,11.428
10.665403,3.08,-10.112,10.585
10.675897,3.64,-8.684,9.344
10.686391,3.92,-7.302,7.953
10.696885,4.34,-6.325,6.846
10.707354,4.62,-5.315,5.958
10.717823,4.69,-3.981,4.842
10.728292,5.18,-2.254,3.512
10.738761,5.74,-1.545,2.713
10.74923,6.02,-0.762,2.709
10.759699,6.44,-0.121,3.106
10.770168,7.14,0.033,2.636
10.780637,7.14,-0.186,2.668
10.791106,6.79,-0.06,2.761
10.801575,6.37,0.625,3.309
10.812044,5.74,0.791,3.978
10.822513,4.83,0.584,3.941
10.832982,3.99,1.022,3.876
10.84345,2.73,1.322,3.787
10.853918,1.61,1.923,3.609
10.864386,1.26,2.259,3.313
10.874854,0.35,2.713,2.753
10.885322,-0.56,3.192,2.055
10.89579,-0.91,3.605,2.128
10.906258,-1.19,4.063,2.351
10.916726,-0.56,3.808,2.591
10.927194,-0.21,3.536,3.325
10.937662,0.14,3.082,3.884
10.94813,0.14,2.827,4.124
10.958598,0.42,2.774,3.617
10.969066,0.42,2.997,3.158
10.979515,0.21,2.851,2.777
10.989964,0.0,3.082,2.676
11.000413,0.0,3.723,1.865
11.010862,0.35,4.063,1.143
11.021311,1.12,4.148,0.66
11.03176,1.54,4.298,0.616
11.042209,1.75,4.148,0.66
11.052658,1.75,3.8,1.025
11.063107,2.03,3.362,1.09
11.073556,1.47,3.033,1.743
11.084005,1.19,2.441,2.279
11.094454,1.26,1.951,3.045
11.104903,1.05,1.099,4.245
11.115328,0.91,0.333,4.963
11.125753,0.84,-0.226,5.718
11.136178,0.56,-0.733,5.77
11.146603,0.7,-1.045,5.929
11.157028,0.98,-1.208,6.042
11.167453,0.91,-1.333,5.949
11.177878,1.05,-1.617,5.543
11.188303,1.75,-1.788,5.3
11.198728,2.45,-2.059,4.826
11.209153,3.64,-2.023,4.619
11.219578,4.62,-1.731,4.173
11.230003,5.81,-1.994,4.055
11.240428,7.07,-1.918,3.216
11.250841,7.98,-2.185,3.524
11.261254,8.61,-2.68,3.508
11.271667,8.68,-3.268,3.618
11.28208,8.75,-3.985,4.06
11.292493,9.45,-4.472,4.4
11.302906,9.1,-5.174,4.348
11.313319,8.82,-5.429,4.587
11.323732,8.68,-6.252,4.015
11.334145,8.12,-6.516,3.898
11.344558,7.63,-6.921,4.182
11.354971,7.28,-7.282,4.616
11.365384,7.07,-7.72,4.681
11.37582,6.72,-8.02,4.77
11.386256,6.72,-8.259,4.514
11.396692,6.79,-8.503,4.685
11.407128,7.21,-8.811,4.417
11.417564,7.07,-8.628,4.591
11.428,6.93,-8.385,4.421
11.438436,7.0,-8.016,4.344
11.448872,6.3,-7.919,3.793
11.459308,6.09,-7.72,3.472
11.469744,6.02,-7.226,3.488
11.48018,6.02,-7.019,3.525
11.490616,6.23,-6.682,3.229
11.501054,6.3,-6.025,3.131
11.511492,6.3,-5.587,3.066
11.52193,6.09,-5.356,2.965
11.532368,6.37,-4.724,3.005
11.542806,6.51,-4.342,2.859
11.553244,6.65,-3.929,2.932
11.563682,7.07,-3.913,2.438
11.57412,7.21,-3.519,2.223
11.584558,7.42,-3.702,2.048
11.594996,7.7,-4.683,1.164
11.605434,9.31,-7.299,0.277
11.615872,12.39,-11.354,-0.509
11.62631,15.75,-17.615,-0.476
11.636775,19.39,-25.773,0.644
11.64724,23.52,-34.609,2.782
11.657705,27.93,-42.459,4.17
11.66817,31.92,-50.241,4.362
11.678635,35.77,-56.534,2.968
11.6891,38.99,-61.619,1.574
11.699565,41.37,-65.906,0.889
11.71003,43.19,-68.967,0.918
11.720495,44.87,-70.626,1.052
11.73096,45.92,-71.145,1.174
11.741425,47.04,-71.068,1.543
11.75189,47.95,-70.35,2.309
11.76235,48.37,-68.415,3.432
11.77281,48.51,-65.455,4.38
11.78327,48.44,-61.234,4.627
11.79373,48.86,-57.029,4.16
11.80419,48.86,-52.609,4.087
11.81465,48.86,-48.436,4.609
11.82511,49.07,-44.47,5.095
11.83557,48.79,-40.294,5.192
11.84603,48.09,-35.687,4.867
11.85649,46.55,-30.862,4.509
11.86695,44.73,-26.004,4.371
11.87741,42.77,-21.827,5.676
11.88787,40.74,-18.173,7.529
11.898349,38.5,-15.505,8.923
11.908828,36.33,-13.94,10.123
11.919307,33.95,-12.897,10.662
11.929786,32.2,-12.342,10.334
11.940265,30.38,-12.452,9.746
11.950744,28.91,-12.687,9.065
11.961223,27.93,-12.358,8.412
11.971702,26.74,-12.334,7.066
11.982181,26.11,-12.33,5.431
11.99266,25.62,-12.598,4.531
12.003139,24.99,-12.456,4.13
12.013618,24.85,-12.408,3.854
12.024117,24.99,-11.795,3.607
12.034616,24.99,-11.508,3.586
12.045115,25.34,-10.867,3.984
12.055614,25.41,-9.788,4.316
12.066113,24.36,-8.766,4.567
12.076612,22.96,-7.23,3.914
12.087111,21.7,-5.551,4.068
12.09761,20.3,-4.265,4.437
12.108109,18.97,-2.599,4.66
12.118608,17.29,-1.159,4.558
12.129107,15.82,-0.295,4.497
12.139606,14.35,0.386,4.262
12.150105,13.09,0.807,3.483
12.160604,12.04,1.322,2.579
12.171111,11.27,1.444,1.889
12.181618,10.64,1.683,0.936
12.192125,9.8,1.488,0.831
12.202632,8.75,1.075,0.758
12.213139,8.05,0.316,0.624
12.223646,7.35,-0.215,0.815
12.234153,6.3,-0.677,1.018
12.24466,5.46,-0.758,1.075
12.255167,4.9,-1.05,1.521
12.265674,4.62,-1.212,1.634
12.276181,4.48,-1.192,1.922
12.286688,4.13,-1.054,1.947
12.297214,4.27,-0.932,2.466
12.30774,3.92,-0.969,2.672
12.318266,4.13,-0.924,2.822
12.328792,3.71,-1.204,3.2
12.339318,3.92,-0.774,2.778
12.349844,3.99,-0.543,2.676
12.36037,4.41,-0.559,1.963
12.370896,4.2,-0.584,2.101
12.381422,3.64,-0.965,2.247
12.391948,3.43,-0.673,1.801
12.402474,3.08,-1.233,1.346
12.413,2.94,-1.083,1.302
12.423546,2.87,-1.322,1.046
12.434092,3.15,-1.573,0.86
12.444638,3.57,-1.439,1.31
12.455184,4.41,-1.764,1.537
12.46573,4.76,-1.67,1.411
12.476276,4.9,-2.096,1.407
12.486822,5.46,-2.121,1.545
12.497368,5.32,-2.088,1.764
12.507914,4.76,-1.747,2.251
12.51846,4.48,-1.561,1.999
12.529006,4.2,-1.297,2.117
12.539552,3.5,-0.92,2.397
12.550098,3.15,-0.575,2.457
12.560639,2.66,-0.243,2.587
12.57118,2.45,0.252,2.603
12.581721,2.03,0.548,2.94
12.592262,1.89,1.432,3.167
12.602803,1.82,2.032,2.988
12.613344,1.4,2.924,2.364
12.623885,0.84,4.12,2.432
12.634426,-0.56,5.831,2.805
12.644967,-2.1,7.409,2.728
12.655508,-3.92,9.193,2.687
12.666049,-5.25,11.646,2.48
12.67659,-7.0,13.901,2.593
12.687131,-8.12,16.224,2.719
12.697685,-9.24,18.605,2.925
12.708239,-10.22,21.107,3.651
12.718793,-10.78,23.933,4.149
12.729347,-11.41,25.863,4.489
12.739901,-10.85,27.935,4.428
12.750455,-11.41,29.334,4.959
12.761009,-11.34,30.478,5.73
12.771563,-11.55,31.001,6.39
12.782117,-11.06,30.839,6.504
12.792671,-10.71,30.284,6.832
12.803225,-10.22,29.639,6.861
12.813779,-9.8,28.463,7.08
12.824355,-9.59,26.979,7.032
12.834931,-9.38,25.04,6.334
12.845507,-9.45,23.374,6.112
12.856083,-9.31,21.216,5.447
12.866659,-9.45,19.436,5.062
12.877235,-9.45,17.429,4.353
12.887811,-9.45,15.766,3.704
12.898387,-9.31,14.254,3.011
12.908963,-8.61,12.109,2.277
12.919539,-7.77,10.353,1.754
12.930115,-6.79,8.678,1.175
12.940691,-6.09,6.829,0.778
12.951267,-5.6,5.624,0.352
12.961845,-4.83,4.744,-0.301
12.972423,-3.71,3.366,-0.544
12.983001,-3.01,2.181,-0.682
12.993579,-2.59,1.334,-1.115
13.004157,-1.89,0.446,-0.916
13.014735,-1.4,-0.207,-1.245
13.025313,-1.05,-0.6,-1.03
13.035891,-0.84,-0.831,-0.928
13.046469,-0.49,-1.213,-0.782
13.057047,-0.14,-1.229,-0.288
13.067625,0.35,-1.148,-0.345
13.078203,0.98,-1.103,-0.194
13.088781,1.54,-0.819,0.211
13.099365,2.24,-1.038,0.243
13.109949,3.22,-0.742,0.58
13.120533,3.92,-0.657,1.306
13.131117,4.34,-0.45,1.342
13.141701,4.55,-0.357,1.217
13.152285,4.83,-0.308,0.941
13.162869,4.83,0.045,1.358
13.173453,4.76,0.122,1.727
13.184037,4.62,-0.097,1.76
13.194621,4.2,-0.052,1.91
13.205205,3.99,0.073,2.003
13.215789,3.71,0.13,2.084
13.226348,3.43,0.272,1.683
13.236907,3.01,-0.235,1.736
13.247466,2.52,-0.503,2.044
13.258025,1.96,-0.34,1.93
13.268584,1.75,-0.778,1.995
13.279143,1.68,-0.592,1.744
13.289702,1.89,-0.6,1.387
13.300261,2.24,-1.034,1.026
13.31082,1.96,-0.823,0.637
13.321379,2.1,-0.697,0.73
13.331938,2.17,-0.462,0.203
13.342497,2.24,-0.057,-0.081
13.353056,1.61,0.568,-0.397
13.363615,1.12,0.616,-0.673
13.374174,0.91,1.091,-0.945
13.384711,1.54,1.492,-0.803
13.395248,1.89,1.606,-0.641
13.405785,2.1,1.521,-0.158
13.416322,2.38,0.912,-0.337
13.426859,2.66,1.034,-1.026
13.437396,2.73,0.762,-1.5
13.447933,3.22,1.293,-1.691
13.45847,3.22,1.2,-1.565
13.469007,2.73,1.383,-1.391
13.479544,2.45,1.233,-1.346
13.490081,2.38,1.208,-1.209
13.500618,2.38,1.37,-1.322
13.51111,1.89,1.083,-1.302
13.521602,1.82,0.977,-1.107
13.532094,1.47,1.257,-1.484
13.542586,1.05,1.5,-1.655
13.553078,0.63,1.557,-1.574
13.56357,0.42,1.796,-1.318
13.574062,0.07,2.181,-1.89
13.584554,0.07,2.303,-1.371
13.595046,-0.28,2.554,-1.184
13.605538,-0.49,2.838,-0.779
13.61603,-0.77,3.138,-0.868
13.626522,-1.19,3.763,-1.185
13.636995,-1.26,3.937,-1.367
13.647468,-1.96,4.399,-1.57
13.657941,-2.45,5.425,-1.744
13.668414,-2.59,6.07,-1.773
13.678887,-3.15,6.476,-2.057
13.68936,-4.13,7.319,-2.406
13.699833,-4.9,8.272,-2.167
13.710306,-5.39,9.196,-2.572
13.720779,-5.88,10.19,-2.966
13.731252,-6.3,10.964,-3.327
13.741725,-6.51,11.97,-3.789
13.752198,-6.86,12.716,-3.586
13.76268,-7.49,13.559,-3.935
13.773162,-7.28,13.888,-3.38
13.783644,-7.21,14.334,-3.088
13.794126,-7.14,14.379,-2.938
13.804608,-6.86,14.456,-2.569
13.81509,-6.93,14.557,-2.338
13.825572,-6.79,14.565,-1.981
13.836054,-7.0,14.273,-1.535
13.846536,-6.86,14.237,-1.328
13.857018,-6.65,13.973,-1.446
13.8675,-6.16,13.523,-1.312
13.877982,-5.95,13.211,-1.153
13.888443,-5.81,12.899,-0.995
13.898904,-5.74,12.384,-1.299
13.909365,-5.6,12.27,-1.462
13.919826,-5.25,11.962,-1.729
13.930287,-4.55,10.936,-1.555
13.940748,-4.41,10.855,-1.498
13.951209,-3.92,10.21,-1.469
13.96167,-3.29,9.44,-1.534
13.972131,-3.29,8.706,-1.806
13.982592,-3.15,8.089,-2.341
13.993053,-2.94,7.096,-1.947
14.003514,-2.8,6.415,-1.712
14.013975,-2.38,5.446,-1.457
14.02444,-2.31,4.7,-1.659
14.034905,-2.03,4.31,-1.87
14.04537,-1.54,3.702,-2.048
14.055835,-1.26,3.3,-2.19
14.0663,-0.91,2.696,-1.586
14.076765,-0.28,1.995,-1.638
14.08723,0.56,1.674,-1.837
14.097695,1.26,1.488,-1.586
14.10816,1.61,1.476,-1.517
14.118625,1.82,0.734,-0.937
14.12909,1.96,0.511,-0.479
14.139555,1.89,0.43,-0.422
14.150001,1.89,0.405,-0.284
14.160447,1.4,0.179,0.6
14.170893,1.12,0.175,1.026
14.181339,0.49,-0.381,1.354
14.191785,0.21,-0.462,1.411
14.202231,0.0,-0.474,1.48
14.212677,-0.42,-0.503,2.044
14.223123,-0.63,-0.908,2.328
14.233569,-1.05,-0.944,2.535
14.244015,-1.26,-0.957,2.603
14.254461,-1.12,-1.346,2.393
14.264907,-1.05,-1.642,2.056
14.275353,-0.63,-1.378,2.174
14.285822,-0.42,-1.354,2.036
14.296291,-0.42,-1.204,1.991
14.30676,-0.49,-1.435,2.093
14.317229,-0.63,-1.524,1.793
14.327698,-0.84,-1.269,1.553
14.338167,-0.91,-0.9,1.476
14.348636,-0.84,-0.588,1.318
14.359105,-0.91,-0.211,1.598
14.369574,-1.12,-0.235,1.736
14.380043,-0.77,-0.559,1.963
14.390512,-0.42,-0.604,1.813
14.400981,-0.49,-0.442,1.699
14.411442,-0.28,-0.207,1.172
14.421903,-0.14,-0.409,0.71
14.432364,-0.28,0.118,0.945
14.442825,0.0,0.544,0.949
14.453286,-0.42,0.722,0.341
14.463747,-0.42,0.779,0.422
14.474208,-1.33,0.604,0.604
14.484669,-1.33,1.054,0.47
14.49513,-0.98,1.192,0.495
14.505591,-1.12,1.006,0.746
14.516052,-1.12,1.054,0.47
14.526513,-1.26,1.504,0.336
14.536974,-1.26,1.553,0.061
14.547436,-0.91,1.521,-0.158
14.557898,-0.84,2.015,-0.142
14.56836,-0.77,2.015,-0.142
14.578822,-0.91,2.259,-0.313
14.589284,-0.98,2.267,0.044
14.599746,-1.33,2.356,0.344
14.610208,-1.61,2.425,0.357
14.62067,-1.75,2.713,0.336
14.631132,-1.82,2.851,0.36
14.641594,-1.54,2.843,0.004
14.652056,-1.54,2.924,-0.053
14.662518,-1.89,3.284,-0.487
14.67298,-1.96,3.455,-0.244
14.683469,-2.24,3.491,-0.451
14.693958,-2.38,3.743,-0.264
14.704447,-2.66,3.994,-0.078
14.714936,-2.73,4.144,-0.122
14.725425,-3.08,4.765,-0.013
14.735914,-3.57,5.065,-0.102
14.746403,-3.64,5.361,0.234
14.756892,-3.85,5.981,0.344
14.767381,-3.85,6.245,0.461
14.77787,-4.2,6.877,0.502
14.788359,-4.27,7.506,0.968
14.798848,-4.27,7.77,1.086
14.809337,-4.41,8.045,1.134
14.819826,-4.27,8.435,1.345
14.830315,-4.34,9.059,1.029
14.840832,-4.41,9.473,1.102
14.851349,-4.9,9.631,1.414
14.861866,-4.76,10.332,1.466
14.872383,-4.48,10.324,1.11
14.8829,-4.83,10.405,1.053
14.893417,-4.9,10.807,1.195
14.903934,-5.18,11.001,1.3
14.914451,-5.11,11.322,1.499
14.924968,-5.6,11.492,1.742
14.935485,-5.6,11.65,2.054
14.946002,-5.81,11.569,2.111
14.956519,-6.72,11.553,2.606
14.967036,-7.35,11.273,2.983
14.977553,-8.05,10.758,3.887
14.98807,-9.24,10.369,4.885
14.998587,-9.94,9.684,5.546
15.009104,-10.01,9.782,6.203
15.019621,-10.43,9.291,6.969
15.030138,-10.92,9.113,7.578
15.040655,-10.78,8.756,7.586
15.051172,-10.5,8.95,7.691
15.061689,-9.94,9.457,7.638
15.072206,-9.38,9.1,7.646
15.082723,-9.1,9.429,6.994
15.09324,-8.89,9.627,6.673
15.103751,-8.19,9.011,6.138
15.114262,-7.63,9.116,5.943
15.124773,-7.14,8.958,5.631
15.135284,-6.72,8.638,5.432
15.145795,-5.95,8.265,4.727
15.156306,-5.53,7.993,4.253
15.166817,-5.25,7.973,3.965
15.177328,-5.11,7.733,3.709
15.187839,-4.97,6.874,3.344
15.19835,-5.04,6.411,3.547
15.208861,-5.46,5.617,3.62
15.219372,-5.74,4.846,3.556
15.229883,-5.88,3.845,3.592
15.240409,-5.88,3.419,3.588
15.250935,-5.67,2.794,3.905
15.261461,-5.32,2.024,3.84
15.271987,-5.04,1.148,3.97
15.282513,-4.9,0.503,3.998
15.293039,-4.48,0.366,3.974
15.303565,-4.13,0.207,3.662
15.314091,-4.13,-0.17,3.382
15.324617,-3.71,-0.283,3.22
15.335143,-3.43,-0.579,2.883
15.345669,-2.52,-0.924,2.822
15.356195,-1.96,-1.35,2.818
15.366703,-1.82,-1.739,2.608
15.377211,-1.26,-1.991,2.421
15.387719,-1.05,-2.084,2.547
15.398227,-0.49,-2.425,2.06
15.408735,-0.07,-2.376,1.785
15.419243,0.35,-2.064,1.626
15.429751,0.56,-2.1,1.833
15.440259,0.21,-2.169,1.821
15.450767,0.28,-2.335,2.36
15.461275,0.42,-2.137,2.04
15.471783,0.35,-2.506,2.117
15.482291,0.49,-2.737,2.218
15.492799,0.77,-2.863,2.125
15.50331,0.77,-3.073,2.515
15.513821,0.84,-3.187,2.352
15.524332,0.77,-2.988,2.032
15.534843,1.19,-3.54,1.935
15.545354,1.47,-3.345,2.04
15.555865,1.89,-3.657,2.198
15.566376,2.1,-3.978,2.0
15.576887,2.31,-3.88,1.448
15.587398,2.38,-3.767,1.61
15.597909,2.45,-3.779,1.679
15.60842,3.08,-3.799,1.391
15.618931,3.36,-4.022,0.641
15.629442,3.57,-4.992,-0.312
15.639945,3.99,-6.204,-1.094
15.650448,5.18,-8.062,-3.056
15.660951,6.02,-10.454,-4.402
15.671454,7.56,-12.851,-5.322
15.681957,9.1,-15.746,-5.833
15.69246,10.64,-18.897,-6.104
15.702963,12.11,-21.484,-6.347
15.713466,13.37,-23.958,-6.428
15.723969,14.42,-25.466,-6.338
15.734472,14.84,-26.427,-6.934
15.744975,15.33,-26.906,-7.445
15.755478,15.4,-26.655,-8.467
15.76601,15.82,-25.702,-9.436
15.776542,16.17,-24.753,-9.98
15.787074,16.87,-24.129,-10.296
15.797606,17.92,-23.415,-10.313
15.808138,19.32,-22.843,-9.927
15.81867,20.93,-22.32,-9.267
15.829202,22.96,-22.016,-8.573
15.839734,24.71,-21.245,-7.3
15.850266,26.53,-20.856,-5.881
15.860798,27.72,-20.43,-4.669
15.87133,28.7,-19.829,-3.639
15.881862,29.33,-19.075,-3.079
15.892389,29.47,-17.992,-1.964
15.902916,29.47,-16.999,-1.149
15.913443,28.84,-15.819,-0.586
15.92397,27.79,-14.679,-0.598
15.934497,26.18,-13.426,-0.448
15.945024,23.73,-12.169,0.484
15.955551,20.65,-10.981,1.405
15.966078,17.5,-9.221,1.502
15.976605,14.84,-7.38,1.542
15.987132,11.27,-5.648,2.203
15.997659,7.42,-4.111,2.758
16.008186,3.29,-2.23,3.374
16.018713,-0.7,0.613,3.378
16.029234,-4.76,2.494,2.785
16.039755,-8.12,4.096,2.57
16.050276,-11.62,5.604,2.481
16.060797,-14.07,6.849,2.274
16.071318,-16.03,8.11,2.781
16.081839,-17.57,9.408,3.08
16.09236,-17.99,10.138,2.569
16.102881,-18.13,11.168,1.969
16.113402,-18.06,11.679,1.491
16.123923,-17.85,12.104,1.495
16.134444,-17.99,12.007,2.046
16.144965,-17.78,11.707,2.135
16.155486,-17.43,11.731,1.997
16.165983,-17.15,11.415,2.581
16.17648,-17.01,11.148,2.89
16.186977,-16.59,10.799,3.255
16.197474,-16.1,10.616,3.08
16.207971,-15.54,10.223,3.295
16.218468,-14.56,9.878,3.235
16.228965,-13.72,9.453,3.231
16.239462,-13.02,8.857,2.983
16.249959,-12.04,8.467,2.772
16.260456,-10.71,7.51,2.959
16.270953,-9.66,6.772,3.113
16.28145,-8.75,5.669,2.919
16.291947,-7.84,4.879,2.566
16.302435,-6.93,4.088,2.213
16.312923,-5.88,3.09,1.824
16.323411,-5.11,2.421,1.991
16.333899,-4.48,1.951,1.837
16.344387,-3.78,1.724,1.512
16.354875,-3.01,1.886,1.399
16.365363,-2.1,1.468,1.752
16.375851,-1.26,1.164,1.058
16.386339,-0.84,1.452,1.038
16.396827,0.0,1.087,0.689
16.407315,0.63,0.791,0.353
16.417803,1.12,0.702,0.053
16.428273,1.68,0.681,-0.235
16.438743,2.45,0.02,-0.92
16.449213,2.38,-0.053,-1.715
16.459683,2.73,-0.321,-2.615
16.470153,2.94,-0.605,-3.021
16.480623,3.01,-0.373,-3.122
16.491093,2.94,-0.795,-3.552
16.501563,2.94,-1.014,-3.52
16.512033,2.31,-1.115,-2.542
16.522503,0.91,-1.351,-2.015
16.532973,-0.84,-1.63,-1.638
16.543443,-2.38,-2.125,-0.446
16.553913,-3.64,-2.04,0.28
16.564383,-4.83,-2.664,0.596
16.574855,-5.46,-2.936,0.122
16.585327,-5.81,-2.798,0.146
16.595799,-6.23,-2.92,-0.373
16.606271,-7.07,-2.344,-1.622
16.616743,-8.33,-1.939,-3.114
16.627215,-10.08,-1.923,-4.817
16.637687,-11.27,-1.461,-6.228
16.648159,-12.6,-1.822,-7.003
16.658631,-13.3,-1.505,-7.587
16.669103,-14.21,-1.274,-7.688
16.679575,-14.98,-0.942,-7.558
16.690047,-15.33,-0.654,-7.579
16.700519,-15.68,-0.443,-7.968
16.711007,-16.03,0.039,-7.883
16.721495,-16.03,0.769,-7.186
16.731983,-15.96,1.118,-6.342
16.742471,-15.26,1.824,-5.507
16.752959,-14.63,2.359,-4.915
16.763447,-13.86,3.041,-3.942
16.773935,-12.81,3.698,-2.831
16.784423,-11.2,4.655,-1.809
16.794911,-9.66,4.902,-1.197
16.805399,-7.84,4.598,-0.682
16.815887,-6.16,4.801,-0.22
16.826375,-4.34,4.586,0.595
16.836886,-3.08,3.934,1.475
16.847397,-2.38,3.183,1.699
16.857908,-1.68,2.166,2.23
16.868419,-0.7,1.647,2.352
16.87893,-0.49,0.86,2.782
16.889441,-0.49,-0.259,3.082
16.899952,-1.12,-0.985,3.167
16.910463,-1.82,-1.832,2.733
16.920974,-2.31,-2.591,2.6
16.931485,-2.52,-2.871,2.977
16.941996,-2.73,-2.883,3.046
16.952507,-2.94,-3.333,3.18
16.963018,-2.59,-3.811,2.669
16.973508,-1.89,-3.601,2.279
16.983998,-1.75,-3.45,2.235
16.994488,-1.96,-3.568,2.498
17.004978,-1.68,-3.26,2.766
17.015468,-1.61,-3.329,2.754
17.025958,-1.82,-3.41,2.811
17.036448,-1.82,-3.138,3.285
17.046938,-1.61,-3.231,3.411
17.057428,-1.68,-3.422,4.088
17.067918,-1.47,-3.596,4.27
17.078408,-1.19,-3.564,4.489
17.088898,-1.54,-4.168,5.094
17.099388,-1.96,-3.653,5.398
17.109886,-2.8,-3.503,5.353
17.120384,-3.29,-3.341,5.24
17.130882,-3.5,-2.927,5.312
17.14138,-3.85,-2.809,5.049
17.151878,-4.2,-2.29,4.927
17.162376,-4.76,-2.12,5.17
17.172874,-6.16,-2.153,4.951
17.183372,-7.56,-2.169,5.446
17.19387,-8.82,-1.917,5.633
17.204368,-10.22,-1.455,5.43
17.214866,-11.69,-1.09,5.779
17.225364,-12.74,-1.045,5.929
17.235847,-14.07,-0.689,5.92
17.24633,-14.56,-0.356,6.05
17.256813,-14.7,0.277,6.091
17.267296,-14.77,0.508,5.989
17.277779,-15.05,0.901,5.774
17.288262,-15.12,0.865,5.981
17.298745,-14.98,0.719,5.6
17.309228,-15.33,0.84,6.119
17.319711,-15.68,1.546,6.954
17.330194,-15.82,1.899,7.372
17.340677,-16.17,1.911,7.303
17.35116,-16.03,2.519,7.481
17.361643,-15.96,3.294,7.12
17.372126,-16.31,4.101,6.978
17.382607,-15.82,4.887,6.548
17.393088,-15.33,5.147,5.883
17.403569,-14.63,5.455,4.942
17.41405,-13.72,5.852,4.302
17.424531,-12.95,5.901,4.026
17.435012,-11.76,5.982,3.969
17.445493,-10.15,5.811,3.726
17.455974,-9.17,5.759,3.219
17.466455,-7.77,5.718,2.643
17.476936,-6.16,5.86,2.242
17.487417,-5.04,5.584,2.193
17.497916,-4.13,5.519,1.755
17.508415,-3.57,4.874,1.784
17.518914,-3.01,4.173,1.731
17.529413,-2.31,3.329,2.08
17.539912,-1.61,2.697,2.039
17.550411,-1.05,1.857,1.962
17.56091,-0.7,0.957,2.23
17.571409,-0.14,0.544,2.157
17.581908,0.07,-0.138,2.392
17.592407,0.42,-0.859,2.052
17.602906,0.84,-1.305,1.76
17.613405,1.19,-1.772,1.18
17.623896,1.47,-2.019,0.568
17.634387,1.54,-2.153,0.118
17.644878,1.89,-2.117,-0.089
17.655369,2.03,-2.295,-0.689
17.66586,3.01,-1.91,-1.261
17.676351,3.29,-1.415,-1.245
17.686842,3.36,-1.565,-1.2
17.697333,3.43,-1.784,-1.168
17.707824,3.29,-1.724,-1.512
17.718315,3.22,-1.655,-1.5
17.728806,3.36,-1.314,-1.014
17.739297,2.87,-1.626,-0.855
17.749788,2.8,-1.541,-0.13
17.760306,2.73,-1.107,0.231
17.770824,3.57,-0.807,0.142
17.781342,3.36,-0.766,0.718
17.79186,2.94,-1.358,1.253
17.802378,2.94,-1.589,1.355
17.812896,3.15,-1.005,1.671
17.823414,2.94,-1.224,1.703
17.833932,2.8,-1.054,1.947
17.84445,2.38,-0.965,2.247
17.854968,2.31,-1.204,1.991
17.865486,2.45,-1.208,2.417
17.876004,2.8,-1.646,2.482
17.88654,3.01,-1.723,2.113
17.897076,2.94,-2.185,2.316
17.907612,2.94,-2.461,2.267
17.918148,3.64,-1.841,2.376
17.928684,3.71,-1.962,1.857
17.93922,2.94,-2.283,1.659
17.949756,2.94,-2.457,1.841
17.960292,2.8,-2.25,1.878
17.970828,2.59,-2.388,1.853
17.981364,2.38,-2.376,1.785
17.9919,2.31,-2.214,1.671
18.002436,2.66,-2.137,2.04
18.012972,2.94,-2.55,1.967
18.023508,2.66,-2.283,1.659
18.034074,2.45,-2.502,1.691
18.04464,2.24,-2.356,2.072
18.055206,2.1,-2.226,1.74
18.065772,2.24,-1.95,1.789
18.076338,2.38,-1.906,1.939
18.086904,2.73,-1.788,1.675
18.09747,3.08,-2.295,1.728
18.108036,3.64,-1.358,1.253
18.118602,4.2,-1.172,1.002
18.129168,4.9,-1.01,0.888
18.139734,5.53,-0.811,0.568
18.1503,5.39,-0.843,0.349
18.160859,5.39,-0.255,0.239
18.171418,5.25,-0.223,0.458
18.181977,4.83,-0.227,0.884
18.192536,4.55,-0.576,1.249
18.203095,4.55,-0.292,1.654
18.213654,3.92,-0.851,2.409
18.224213,3.22,-1.727,2.539
18.234772,2.8,-1.723,3.321
18.245331,2.66,-1.808,3.804
18.25589,2.38,-2.226,4.157
18.266449,2.1,-2.201,4.019
18.277008,1.75,-2.189,3.95
18.287567,1.26,-1.727,3.747
18.298105,0.84,-1.565,3.633
18.308643,0.91,-1.54,3.496
18.319181,0.91,-1.731,2.964
18.329719,0.84,-1.719,2.896
18.340257,0.91,-1.808,2.595
18.350795,1.54,-1.537,1.861
18.361333,1.89,-1.374,1.748
18.371871,1.96,-1.143,1.646
18.382409,2.1,-1.464,1.448
18.392947,2.24,-1.326,1.472
18.403485,2.17,-1.674,1.837
18.414023,2.94,-1.962,1.857
18.424561,3.29,-1.8,1.744
18.435086,3.43,-1.014,1.314
18.445611,3.64,-1.115,1.083
18.456136,3.57,-0.92,1.188
18.466661,3.99,-0.669,1.375
18.477186,4.06,-0.438,1.273
18.487711,3.71,-0.251,1.022
18.498236,3.78,-0.276,1.16
18.508761,3.71,-0.336,1.504
18.519286,3.43,-0.709,2.007
18.529811,3.15,-1.111,1.865
18.540336,2.66,-1.366,2.105
18.550861,2.31,-1.188,2.705
18.561402,2.17,-1.139,3.637
18.571943,2.66,-1.451,3.796
18.582484,2.66,-1.281,4.039
18.593025,2.38,-0.616,4.298
18.603566,2.38,-0.125,4.74
18.614107,2.31,0.171,5.077
18.624648,2.59,0.637,5.657
18.635189,2.38,0.589,5.932
18.64573,2.59,0.508,5.989
18.656271,2.59,0.431,5.62
18.666812,1.96,0.958,5.855
18.677353,1.47,0.646,6.013
18.687873,0.91,0.881,5.486
18.698393,1.05,0.885,5.061
18.708913,0.63,0.576,4.793
18.719433,0.56,0.524,4.286
18.729953,0.49,0.552,3.722
18.740473,0.49,0.292,3.179
18.750993,0.28,-0.085,2.899
18.761513,0.14,-0.543,2.676
18.772033,0.42,-1.196,2.348
18.782553,0.14,-1.358,2.462
18.793073,-0.07,-1.528,2.218
18.803593,-0.21,-1.979,2.352
18.814113,-0.42,-1.877,2.583
18.824638,-0.07,-1.922,2.433
18.835163,0.35,-2.116,2.328
18.845688,0.98,-2.177,2.673
18.856213,1.12,-2.688,3.151
18.866738,1.26,-2.996,2.884
18.877263,1.54,-3.264,3.192
18.887788,1.75,-3.402,3.167
18.898313,1.47,-3.008,2.952
18.908838,1.54,-2.676,3.082
18.919363,1.68,-2.489,2.831
18.929888,1.54,-2.591,2.6
18.940413,1.33,-2.303,2.579
18.950911,1.33,-1.946,2.571
18.961409,1.75,-1.78,2.032
18.971907,1.75,-1.731,1.756
18.982405,1.96,-1.683,1.48
18.992903,2.31,-1.853,1.237
19.003401,2.38,-1.865,1.306
19.013899,3.08,-1.727,1.33
19.024397,3.01,-1.91,1.156
19.034895,3.01,-2.035,1.063
19.045393,2.8,-1.772,1.18
19.055891,2.59,-1.508,1.298
19.066389,2.03,-1.577,1.286
19.076887,2.31,-1.383,1.391
19.087388,2.45,-1.168,1.784
19.097889,3.22,-1.03,1.809
19.10839,3.85,-0.515,2.113
19.118891,4.48,-0.267,1.517
19.129392,4.9,-0.069,1.196
19.139893,5.6,0.004,0.783
19.150394,5.95,-0.239,0.953
19.160895,5.67,-0.251,1.022
19.171396,5.18,-0.357,1.217
19.181897,4.83,-0.276,1.16
19.192398,4.34,-0.126,1.115
19.202899,3.85,-0.138,1.184
19.213393,3.29,0.057,1.289
19.223887,2.66,-0.105,1.403
19.234381,1.96,0.264,1.326
19.244875,1.75,0.049,0.933
19.255369,1.75,-0.162,1.322
19.265863,1.61,-0.649,1.663
19.276357,1.33,-1.354,2.036
19.286851,1.33,-1.938,1.72
19.297345,1.68,-2.177,1.464
19.307839,1.89,-2.283,1.659
19.318333,1.89,-2.684,1.517
19.328827,1.75,-2.473,1.128
19.339321,1.75,-2.449,0.99
19.349815,1.75,-2.1,0.625
19.360316,1.68,-2.36,0.081
19.370817,1.75,-1.829,-0.109
19.381318,2.1,-2.068,-0.365
19.391819,2.31,-2.023,-0.215
19.40232,2.38,-2.559,0.402
19.412821,2.1,-2.94,1.756
19.423322,2.59,-2.652,1.736
19.433823,2.59,-2.599,1.034
19.444324,2.87,-2.713,0.872
19.454825,2.45,-2.506,0.909
19.465326,2.17,-1.979,1.144
19.475827,2.38,-2.149,0.901
19.486303,2.73,-2.25,0.669
19.496779,2.31,-2.25,0.669
19.507255,2.17,-2.137,0.832
19.517731,2.03,-2.031,0.637
19.528207,1.82,-2.019,0.568
19.538683,1.54,-2.121,0.337
19.549159,1.54,-2.181,0.682
19.559635,1.82,-2.218,0.888
19.570111,1.54,-2.599,1.034
19.580587,1.82,-2.461,1.059
19.591063,1.61,-2.887,1.055
19.601539,1.4,-2.936,1.33
19.612015,0.98,-3.114,1.939
19.622482,0.28,-2.802,1.781
19.632949,0.0,-3.215,1.708
19.643416,0.14,-3.459,1.878
19.653883,0.28,-2.757,1.931
19.66435,0.42,-2.79,1.712
19.674817,0.63,-2.94,1.756
19.685284,0.77,-2.895,1.906
19.695751,1.12,-2.477,1.553
19.706218,1.19,-2.741,1.436
19.716685,1.54,-2.709,1.655
19.727152,1.75,-2.396,1.497
19.737619,1.96,-2.06,1.201
19.748086,1.68,-1.796,1.318
19.758555,2.03,-2.153,1.326
19.769024,1.82,-1.983,1.57
19.779493,1.68,-1.808,1.387
19.789962,1.19,-1.735,0.973
19.800431,1.47,-1.265,1.127
19.8109,1.75,-0.888,1.407
19.821369,1.82,-0.969,1.464
19.831838,1.4,-0.669,1.375
19.842307,1.54,-0.819,1.419
19.852776,1.61,-0.774,1.569
19.863245,1.54,-1.046,1.095
19.873714,1.61,-0.908,1.119
19.884174,1.61,-0.872,0.912
19.894634,1.61,-1.042,0.669
19.905094,1.54,-0.949,0.544
19.915554,1.26,-0.985,0.75
19.926014,1.12,-1.318,0.621
19.936474,1.33,-1.119,0.3
19.946934,0.98,-1.379,-0.243
19.957394,0.84,-1.44,0.102
19.967854,0.91,-0.856,0.418
19.978314,0.49,-0.949,0.544
19.988774,0.84,-0.774,0.361
19.999234,1.05,-0.247,0.596
20.009694,1.19,-0.065,0.77
20.020162,1.12,0.393,0.993
20.03063,1.75,0.175,1.026
20.041098,1.54,0.393,0.993
20.051566,1.33,0.288,1.188
20.062034,1.4,0.527,1.444
20.072502,1.26,0.519,1.087
20.08297,1.26,0.247,0.612
20.093438,1.61,0.179,0.6
20.103906,1.89,-0.316,0.584
20.114374,2.45,-1.131,0.369
20.124842,3.01,-1.318,0.621
20.13531,3.85,-0.924,0.406
20.145778,4.9,-1.058,-0.044
20.156277,5.11,-0.803,-0.284
20.166776,5.39,-0.637,-0.823
20.177275,5.32,-0.576,-1.168
20.187774,5.18,-0.377,-1.488
20.198273,4.76,-0.134,-1.658
20.208772,4.41,-0.02,-1.496
20.219271,4.34,0.296,-0.872
20.22977,3.78,0.499,-0.41
20.240269,3.43,0.081,-0.057
20.250768,3.15,0.061,0.864
20.261267,2.66,-0.588,1.318
20.271768,2.38,-0.499,1.618
20.282269,2.52,-0.624,1.525
20.29277,1.61,-0.369,1.285
20.303271,1.19,-0.417,1.561
20.313772,0.98,-0.693,1.513
20.324273,0.91,-1.192,1.922
20.334774,0.7,-1.022,2.166
20.345275,0.63,-1.472,2.299
20.355776,0.56,-2.072,2.478
20.366277,0.0,-2.173,2.247
20.376778,0.14,-2.145,1.683
20.387279,0.07,-2.165,1.395
20.39778,-0.14,-1.999,0.856
20.408305,0.0,-1.395,0.252
20.41883,0.35,-1.346,-0.024
20.429355,0.84,-1.338,0.333
20.43988,0.77,-1.006,0.462
20.450405,0.77,-1.066,0.807
20.46093,1.05,-0.985,0.75
20.471455,1.33,-0.847,0.775
20.48198,1.4,-0.401,1.067
20.492505,1.26,-0.117,1.472
20.50303,1.19,-0.13,1.541
20.513555,0.77,0.142,0.807
20.52408,0.63,0.13,0.876
20.53462,0.35,-0.101,0.977
20.54516,-0.21,0.102,1.44
20.5557,-0.7,-0.186,1.46
20.56624,-1.05,-0.203,0.746
20.57678,-1.33,-0.446,0.916
20.58732,-1.33,-0.596,0.961
20.59786,-0.84,-0.608,1.03
20.6084,-0.49,-0.478,0.698
20.61894,-0.21,-0.547,0.685
20.62948,-0.07,-0.584,0.892
20.64002,-0.14,-0.681,1.444
20.65056,-0.42,-0.604,1.813
20.6611,-0.28,-0.661,1.732
20.671663,-0.07,-0.551,1.111
20.682226,0.49,-0.807,1.35
20.692789,0.7,-0.547,1.894
20.703352,0.91,-0.742,1.788
20.713915,1.05,-0.511,1.687
20.724478,0.98,-0.608,1.03
20.735041,0.63,-0.539,1.042
20.745604,0.77,-0.738,1.363
20.756167,0.63,-0.936,1.683
20.76673,0.77,-0.855,1.626
20.777293,0.56,-0.936,1.683
20.787856,0.28,-0.75,1.432
20.798426,-0.14,-0.576,1.249
20.808996,-0.07,-0.612,1.456
20.819566,-0.07,-0.831,1.488
20.830136,-0.35,-0.799,1.707
20.840706,0.14,-0.721,2.076
20.851276,0.7,-0.709,2.007
20.861846,0.91,-0.746,2.214
20.872416,1.33,-0.77,2.352
20.882986,1.4,-0.896,2.259
20.893556,1.75,-1.159,2.141
20.904126,1.75,-1.318,1.829
20.914696,1.54,-1.476,1.517
20.925266,1.54,-1.476,1.517
20.935831,1.26,-1.326,1.472
20.946396,1.26,-1.301,1.334
20.956961,0.98,-1.245,1.415
20.967526,0.91,-1.403,1.103
20.978091,1.05,-1.176,1.428
20.988656,0.98,-0.949,1.752
20.999221,1.12,-1.086,1.728
21.009786,1.61,-1.2,1.565
21.020351,1.75,-0.904,1.902
21.030916,1.89,-1.042,1.878
21.041481,1.68,-0.616,1.882
21.052046,1.61,-0.592,1.744
21.062611,1.68,-0.288,1.229
21.073148,1.68,-0.539,1.042
21.083685,1.89,-0.645,1.237
21.094222,2.31,-1.111,1.865
21.104759,2.8,-1.593,1.78
21.115296,2.87,-1.731,1.756
21.125833,3.43,-2.096,1.407
21.13637,3.71,-1.431,0.458
21.146907,4.06,-1.297,0.908
21.157444,4.2,-0.86,0.844
21.167981,3.78,-0.799,0.499
21.178518,3.08,-1.281,0.414
21.189055,2.94,-1.05,0.312
21.199592,2.59,-1.529,1.01
21.210129,2.1,-1.618,1.918
21.220647,1.75,-1.022,2.166
21.231165,1.33,-1.123,1.934
21.241683,1.12,-1.261,1.91
21.252201,1.05,-1.184,2.279
21.262719,0.49,-1.094,2.579
21.273237,0.56,-1.289,2.474
21.283755,0.7,-1.435,2.093
21.294273,0.84,-1.399,1.886
21.304791,0.7,-1.731,1.756
21.315309,0.84,-1.431,1.667
21.325827,1.12,-1.168,1.784
21.336345,0.84,-1.281,1.622
21.346843,0.7,-1.224,1.703
21.357341,0.49,-0.693,1.513
21.367839,0.7,-0.75,1.432
21.378337,0.56,-0.738,1.363
21.388835,0.56,-0.511,1.687
21.399333,0.63,-0.385,1.78
21.409831,0.77,-0.425,2.413
21.420329,0.98,-0.474,2.689
21.430827,1.68,-0.669,2.583
21.441325,1.89,-0.571,2.032
21.451823,2.31,-0.705,1.582
21.462321,2.31,-0.924,1.614
21.472819,2.1,-0.28,1.586
21.4833,1.96,-0.657,1.306
21.493781,2.1,-0.495,1.192
21.504262,2.17,-0.474,1.48
21.514743,2.17,-0.519,1.33
21.525224,1.89,-0.417,1.561
21.535705,1.54,0.134,1.658
21.546186,1.54,0.171,1.452
21.556667,1.26,0.089,1.508
21.567148,1.19,0.069,1.221
21.577629,1.05,-0.211,1.598
21.58811,1.12,-0.349,1.573
21.598591,1.05,-0.13,1.541
21.609039,0.98,-0.649,1.663
21.619487,0.91,-0.799,1.707
21.629935,1.12,-0.705,1.582
21.640383,1.05,-0.928,2.04
21.650831,1.4,-1.099,1.797
21.661279,1.54,-1.062,1.59
21.671727,1.54,-1.074,1.659
21.682175,1.33,-1.038,1.452
21.692623,1.54,-1.026,1.383
21.703071,1.61,-1.464,1.448
21.713519,1.54,-1.293,1.691
21.723967,1.26,-1.443,1.736
21.734415,1.19,-1.269,1.553
21.744872,1.33,-1.455,1.805
21.755329,1.05,-1.524,1.793
21.765786,0.91,-1.626,1.561
21.776243,1.12,-1.557,1.574
21.7867,1.47,-1.569,1.642
21.797157,1.54,-1.606,1.849
21.807614,1.54,-1.549,1.93
21.818071,1.61,-1.962,1.857
21.828528,1.47,-1.8,1.744
21.838985,1.33,-1.224,1.703
21.849442,1.47,-0.997,2.028
21.859899,1.54,-1.155,1.715
21.870356,1.68,-1.455,1.805
21.8808,2.03,-1.618,1.918
21.891244,2.24,-1.512,1.724
21.901688,1.89,-1.374,1.748
21.912132,1.68,-1.419,1.598
21.922576,1.47,-1.326,1.472
21.93302,1.19,-1.35,1.61
21.943464,0.84,-1.083,1.302
21.953908,0.91,-0.795,1.281
21.964352,1.12,-0.908,1.119
21.974796,1.26,-0.847,0.775
21.98524,0.77,-0.527,0.973
21.995684,1.05,-0.576,1.249
22.006147,1.12,-0.486,1.549
22.01661,1.33,-0.693,1.513
22.027073,1.12,-0.855,1.626
22.037536,0.91,-0.868,1.695
22.047999,0.91,-0.928,2.04
22.058462,0.77,-0.843,1.557
22.068925,1.12,-1.083,1.302
22.079388,1.19,-1.293,1.691
22.089851,1.12,-1.48,1.943
22.100314,1.47,-1.906,1.939
22.110777,1.47,-1.731,1.756
22.12124,1.96,-1.914,1.582
22.131726,2.31,-2.453,1.416
22.142212,2.45,-2.072,1.27
22.152698,2.73,-1.861,0.88
22.163184,2.38,-1.46,1.022
22.17367,2.24,-1.318,0.621
22.184156,1.96,-0.799,0.499
22.194642,1.68,-0.734,0.937
22.205128,1.54,-0.219,1.241
22.215614,1.26,0.008,1.565
22.2261,0.98,0.041,1.784
22.236586,1.05,0.304,1.902
22.247072,0.91,0.649,1.963
22.257564,0.84,0.053,1.715
22.268056,0.63,-0.101,2.186
22.278548,0.14,-0.194,2.311
22.28904,0.35,-0.353,1.999
22.299532,0.42,-0.949,1.752
22.310024,0.42,-1.285,2.048
22.320516,0.49,-1.338,1.541
22.331008,0.98,-1.695,1.549
22.3415,1.19,-1.796,1.318
22.351992,0.91,-2.295,1.728
22.362484,1.05,-2.202,1.602
22.372976,1.05,-2.165,1.395
22.383468,0.98,-1.577,1.286
22.393984,1.47,-1.354,0.827
22.4045,1.4,-1.111,0.657
22.415016,1.82,-0.689,1.087
22.425532,1.68,-0.916,1.971
22.436048,1.89,-0.778,1.995
22.446564,2.24,-0.993,1.602
22.45708,2.38,-0.782,1.213
22.467596,2.45,-0.864,1.269
22.478112,2.24,-0.138,1.184
22.488628,2.17,-0.089,0.908
22.499144,2.17,-0.349,0.365
22.50966,2.45,-0.547,0.685
22.520159,1.89,-0.495,1.192
22.530658,1.89,-0.45,1.342
22.541157,1.89,-0.393,1.423
22.551656,1.96,-0.701,1.156
22.562155,1.61,-0.851,1.2
22.572654,1.61,-0.782,1.213
22.583153,1.33,-0.669,1.375
22.593652,1.4,-0.718,1.65
22.604151,1.19,-0.868,1.695
22.61465,1.12,-1.099,1.797
22.625149,1.33,-1.212,1.634
22.635648,1.05,-1.062,1.59
22.646147,1.05,-1.249,1.841
22.656677,0.98,-1.155,1.715
22.667207,0.91,-1.2,1.565
22.677737,0.7,-0.981,1.533
22.688267,0.63,-0.969,1.464
22.698797,0.77,-0.969,1.464
22.709327,0.84,-0.888,1.407
22.719857,0.98,-0.75,1.432
22.730387,1.05,-0.511,1.687
22.740917,0.84,-0.681,1.444
22.751447,0.84,-0.762,1.5
22.761977,1.12,-0.705,1.582
22.772507,1.05,-0.624,1.525
22.783048,0.77,-0.511,1.687
22.793589,1.05,-0.535,1.825
22.80413,1.05,-0.936,1.683
22.814671,1.47,-0.811,1.776
22.825212,1.33,-0.503,2.044
22.835753,1.33,-0.649,1.663
22.846294,1.47,-0.705,1.582
22.856835,1.4,-0.624,1.525
22.867376,1.54,-1.005,1.671
22.877917,1.54,-1.038,1.452
22.888458,1.75,-1.05,1.521
22.898999,1.68,-1.2,1.565
22.90954,2.03,-1.314,1.403
22.920058,2.1,-1.083,1.302
22.930576,1.89,-0.957,1.395
22.941094,1.89,-0.876,1.338
22.951612,1.33,-0.782,1.213
22.96213,1.54,-0.572,0.823
22.972648,0.98,-0.551,1.111
22.983166,1.05,-0.057,1.127
22.993684,0.91,0.037,1.002
23.004202,1.12,0.325,0.981
23.01472,1.26,0.316,0.624
23.025238,1.26,0.024,1.071
23.035756,1.54,0.353,1.626
23.046274,1.68,0.548,1.731
23.056809,1.47,0.191,1.74
23.067344,1.68,-0.349,1.573
23.077879,1.4,-0.235,1.736
23.088414,1.26,-0.819,1.419
23.098949,1.26,-0.957,1.395
23.109484,1.05,-1.099,1.797
23.120019,1.4,-1.573,2.068
23.130554,1.47,-1.597,2.206
23.141089,1.82,-1.804,2.17
23.151624,1.82,-1.828,2.308
23.162159,2.17,-1.8,1.744
23.172694,2.17,-1.946,1.363
23.183205,2.52,-1.529,1.01
23.193716,2.45,-1.054,0.738
23.204227,2.17,-0.961,0.612
23.214738,1.75,-0.397,0.641
23.225249,1.47,0.106,1.014
23.23576,1.19,0.353,1.626
23.246271,1.12,0.467,1.788
23.256782,0.91,0.568,2.019
23.267293,0.63,0.682,2.181
23.277804,0.63,0.58,1.95
23.288315,0.21,0.106,2.222
23.298826,0.21,-0.251,2.23
23.309337,-0.07,-0.454,1.768
23.319852,-0.07,-1.062,1.59
23.330367,0.28,-1.07,1.233
23.340882,0.21,-1.541,1.079
23.351397,0.28,-1.76,1.111
23.361912,1.05,-2.06,1.201
23.372427,1.19,-1.885,1.018
23.382942,0.84,-1.739,1.399
23.393457,1.12,-1.127,1.152
23.403972,1.12,-1.066,0.807
23.414487,1.12,-0.511,0.479
23.425002,1.26,-0.268,0.308
23.435517,1.54,-0.474,0.272
23.446052,1.68,-0.47,1.054
23.456587,1.82,-0.117,1.472
23.467122,2.24,-0.093,1.334
23.477657,2.45,0.235,0.681
23.488192,2.66,0.057,0.081
23.498727,2.59,0.069,0.012
23.509262,2.31,0.56,0.454
23.519797,2.94,0.426,0.004
23.530332,2.87,0.231,-0.101
23.540867,2.45,-0.036,0.207
23.551402,2.24,-0.255,0.239
23.561937,2.31,-0.045,-0.15
23.572477,2.03,-0.405,0.284
23.583017,2.17,-0.555,0.329
23.593557,1.89,-0.239,0.953
23.604097,1.89,-0.227,0.884
23.614637,1.68,-0.207,1.172
23.625177,1.54,-0.503,0.835
23.635717,1.54,-0.726,1.294
23.646257,1.33,-0.782,1.213
23.656797,1.4,-0.908,1.119
23.667337,1.47,-0.884,0.981
23.677877,1.33,-0.722,0.868
23.688417,1.12,-0.645,1.237
23.698957,0.84,-0.126,1.115
23.709511,0.77,-0.519,1.33
23.720065,0.84,-0.207,1.172
23.730619,0.91,-0.345,1.148
23.741173,0.91,-0.563,1.18
23.751727,0.91,-0.438,1.273
23.762281,0.84,-0.207,1.172
23.772835,0.98,-0.182,1.034
23.783389,0.63,0.126,1.302
23.793943,0.49,-0.057,1.127
23.804497,0.77,-0.057,1.127
23.815051,0.7,-0.263,1.091
23.825605,0.7,-0.251,1.022
23.836149,1.05,-0.048,1.484
23.846693,0.77,-0.255,1.448
23.857237,0.91,-0.588,1.318
23.867781,0.98,-0.519,1.33
23.878325,0.98,-0.738,1.363
23.888869,0.7,-0.843,1.557
23.899413,0.63,-0.957,1.395
23.909957,0.91,-0.669,1.375
23.920501,1.05,-1.07,1.233
23.931045,1.19,-1.188,1.496
23.941589,1.19,-1.427,1.241
23.952133,1.19,-1.358,1.253
23.962677,1.47,-0.945,1.326
23.973188,1.33,-0.815,0.994
23.983699,1.19,-0.932,1.257
23.99421,1.12,-0.507,1.261
24.004721,1.26,-0.491,0.766
24.015232,0.77,-0.653,0.88
24.025743,0.98,-0.357,1.217
24.036254,0.7,-0.138,1.184
24.046765,1.12,0.024,1.071
24.057276,1.05,0.057,1.289
24.067787,1.33,-0.024,1.346
24.078298,1.61,-0.13,1.541
24.088809,1.61,0.008,1.565
24.09932,1.54,0.114,1.371
24.109817,1.4,-0.43,1.63
24.120314,1.05,-0.754,1.857
24.130811,0.49,-1.192,1.922
24.141308,0.56,-1.143,1.646
24.151805,0.56,-1.383,1.391
24.162302,0.7,-1.67,1.411
24.172799,0.56,-2.039,1.488
24.183296,0.7,-2.157,1.752
24.193793,1.4,-2.4,1.922
24.20429,2.03,-2.226,1.74
24.214787,2.17,-2.153,1.326
24.225284,2.73,-1.804,0.961
24.235745,2.73,-1.103,1.014
24.246206,2.59,-0.77,1.144
24.256667,2.59,-0.458,0.985
24.267128,2.1,-0.093,1.334
24.277589,1.82,0.248,1.821
24.28805,1.19,0.406,2.133
24.298511,0.42,0.171,2.66
24.308972,0.35,0.357,2.409
24.319433,0.0,0.564,2.445
24.329894,-0.21,0.532,2.226
24.340355,-0.14,0.142,2.015
24.350816,-0.14,0.142,2.015
24.361277,-0.14,-0.312,1.367
24.371755,-0.07,-0.831,1.488
24.382233,0.14,-1.184,1.071
24.392711,0.35,-1.622,1.136
24.403189,0.49,-1.504,0.872
24.413667,0.84,-1.297,0.908
24.424145,0.98,-1.087,0.519
24.434623,1.33,-0.774,0.361
24.445101,0.84,-0.706,0.373
24.455579,0.84,-0.523,0.547
24.466057,0.63,-0.478,0.698
24.476535,0.35,-0.345,1.148
24.487013,0.42,-0.377,0.929
24.497508,0.14,-0.657,1.306
24.508003,-0.07,-0.872,0.912
24.518498,0.21,-0.908,1.119
24.528993,-0.14,-1.237,0.564
24.539488,0.0,-1.188,0.288
24.549983,-0.49,-1.484,-0.048
24.560478,-1.05,-1.46,-1.395
24.570973,-1.4,-2.243,-2.599
24.581468,-1.89,-2.689,-2.891
24.591963,-1.89,-3.151,-2.688
24.602458,-1.82,-3.776,-2.372
24.612953,-1.54,-4.42,-2.343
24.623435,-0.91,-4.838,-1.99
24.633917,-0.14,-4.842,-1.565
24.644399,0.28,-5.085,-1.394
24.654881,0.63,-5.008,-1.025
24.665363,0.84,-4.627,-1.171
24.675845,0.42,-4.453,-1.354
24.686327,-0.07,-4.108,-1.293
24.696809,-0.98,-3.487,-1.184
24.707291,-1.82,-3.106,-1.33
24.717773,-2.94,-2.96,-0.948
24.728255,-3.29,-2.283,-0.758
24.738737,-3.92,-1.829,-0.109
24.749219,-4.55,-2.088,0.556
24.759674,-4.41,-2.181,0.682
24.770129,-4.2,-2.445,0.564
24.780584,-3.92,-2.344,0.795
24.791039,-3.5,-2.125,0.763
24.801494,-3.22,-2.206,0.819
24.811949,-2.8,-2.048,1.132
24.822404,-2.73,-2.23,0.957
24.832859,-2.38,-2.429,1.278
24.843314,-2.03,-2.558,1.61
24.853769,-2.03,-2.546,1.541
24.864224,-1.82,-2.871,1.768
24.874679,-1.82,-3.369,2.178
24.885134,-1.54,-3.369,2.178
24.895589,-1.61,-3.3,2.19
24.906055,-1.33,-3.037,2.308
24.916521,-1.26,-3.232,2.202
24.926987,-1.54,-2.806,2.206
24.937453,-1.4,-2.781,2.068
24.947919,-1.47,-2.611,2.312
24.958385,-0.98,-2.461,2.267
24.968851,-0.98,-2.039,2.697
24.979317,-0.56,-1.869,2.94
24.989783,-0.63,-2.039,2.697
25.000249,-0.98,-2.177,2.673
25.010715,-1.12,-2.189,2.741
25.021181,-1.19,-1.946,2.571
25.031647,-1.47,-1.958,2.64
25.042095,-1.19,-1.958,2.64
25.052543,-0.91,-2.141,2.466
25.062991,-0.91,-2.368,2.141
25.073439,-0.91,-1.999,2.064
25.083887,-0.91,-2.125,1.971
25.094335,-0.56,-2.072,1.27
25.104783,-0.14,-1.719,1.687
25.115231,0.14,-1.938,1.72
25.125679,0.35,-1.995,1.638
25.136127,0.7,-1.926,1.651
25.146575,0.7,-1.893,1.87
25.157023,0.42,-1.212,1.634
25.167476,0.63,-1.001,1.245
25.177929,0.49,-0.92,1.188
25.188382,0.63,-1.265,1.127
25.198835,0.84,-1.277,1.196
25.209288,1.26,-1.841,1.168
25.219741,1.75,-2.177,1.464
25.230194,1.82,-2.461,1.059
25.240647,1.96,-3.203,0.43
25.2511,1.82,-3.447,0.601
25.261553,2.1,-3.864,0.953
25.272006,2.31,-4.29,0.949
25.282459,2.03,-4.854,0.921
25.292912,2.31,-5.267,0.848
25.303365,2.38,-5.912,0.877
25.313849,2.1,-6.212,0.966
25.324333,1.68,-6.5,0.986
25.334817,0.91,-7.064,0.958
25.345301,0.84,-7.85,0.18
25.355785,0.35,-8.215,-0.169
25.366269,-0.63,-8.503,-0.149
25.376753,-1.4,-8.629,-0.242
25.387237,-1.47,-9.047,-1.098
25.397721,-2.24,-9.574,-1.333
25.408205,-3.08,-10.077,-1.706
25.418689,-3.85,-11.403,-2.65
25.429173,-5.04,-13.487,-3.729
25.439641,-7.28,-16.724,-5.934
25.450109,-9.66,-21.407,-8.395
25.460577,-12.11,-27.162,-12.04
25.471045,-14.21,-34.162,-16.686
25.481513,-16.17,-42.58,-22.151
25.491981,-17.15,-53.116,-27.704
25.502449,-18.13,-65.484,-31.733
25.512917,-19.11,-78.818,-34.724
25.523385,-19.46,-91.397,-37.155
25.533853,-19.46,-103.104,-40.499
25.544321,-19.18,-114.527,-44.646
25.554789,-18.9,-127.816,-47.486
25.565257,-19.04,-142.763,-47.776
25.575729,-20.16,-158.739,-45.049
25.586201,-21.49,-173.628,-40.424
25.596673,-22.61,-184.211,-37.244
25.607145,-23.52,-190.93,-37.433
25.617617,-22.89,-194.223,-39.72
25.628089,-22.05,-195.963,-40.738
25.638561,-20.51,-196.506,-38.061
25.649033,-19.32,-195.094,-32.766
25.659505,-17.99,-190.418,-28.245
25.669977,-15.19,-181.87,-25.529
25.680449,-11.62,-169.263,-24.87
25.690921,-7.28,-154.839,-24.033
25.701393,-3.43,-140.735,-19.769
25.711865,-0.63,-126.834,-12.342
25.722362,1.4,-112.778,-5.386
25.732859,3.78,-98.524,0.042
25.743356,5.39,-84.299,3.617
25.753853,6.23,-69.708,6.331
25.76435,6.65,-57.069,8.418
25.774847,6.37,-46.813,10.724
25.785344,5.53,-39.936,13.642
25.795841,4.2,-34.7,17.409
25.806338,3.99,-30.913,19.712
25.816835,3.85,-26.76,19.946
25.827332,4.34,-23.524,18.526
25.837829,4.41,-21.651,17.577
25.848318,4.2,-20.921,18.275
25.858807,4.2,-19.932,19.515
25.869296,4.48,-18.979,18.546
25.879785,5.18,-18.172,15.987
25.890274,5.67,-17.929,13.4
25.900763,5.81,-18.655,12.277
25.911252,6.3,-19.061,11.353
25.921741,6.86,-18.968,10.018
25.93223,7.28,-17.549,8.421
25.942719,7.56,-16.037,6.697
25.953208,6.72,-14.305,6.149
25.963697,6.44,-12.57,6.384
25.974186,5.95,-10.931,5.962
25.98471,5.32,-9.261,4.551
25.995234,4.9,-7.003,3.03
26.005758,5.39,-5.113,1.586
26.016282,5.67,-3.443,0.175
26.026806,5.74,-2.591,0.183
26.03733,5.39,-2.368,0.933
26.047854,4.9,-2.745,1.862
26.058378,4.13,-2.806,2.206
26.068902,4.27,-2.709,1.655
26.079426,4.27,-2.437,0.921
26.08995,4.34,-2.165,0.187
26.100474,4.27,-2.388,-0.563
26.111017,4.76,-2.226,-0.677
26.12156,5.25,-2.721,-0.693
26.132103,5.95,-2.34,-0.839
26.142646,6.09,-2.972,-0.88
26.153189,6.16,-3.678,-0.506
26.163732,6.58,-3.982,0.009
26.174275,6.72,-4.152,-0.235
26.184818,7.14,-4.854,-1.496
26.195361,7.35,-5.823,-2.448
26.205904,7.77,-6.383,-1.694
26.216447,7.42,-7.336,-0.725
26.22699,7.56,-7.619,0.078
26.237533,7.77,-7.413,0.115
26.248067,8.12,-6.589,-0.522
26.258601,8.47,-5.722,-1.009
26.269135,8.68,-5.454,-1.317
26.279669,8.68,-4.818,-1.702
26.290203,8.4,-4.489,-2.355
26.300737,8.61,-3.731,-2.222
26.311271,8.89,-3.118,-1.261
26.321805,9.03,-2.328,-0.908
26.332339,9.03,-1.61,-1.35
26.342873,9.24,-0.977,-1.31
26.353407,9.1,-0.754,-0.559
26.363941,8.75,-0.564,-0.028
26.374475,8.47,-0.45,0.134
26.385019,8.75,-0.308,-0.268
26.395563,8.89,-0.941,-0.308
26.406107,8.4,-1.314,0.195
26.416651,8.19,-1.857,0.454
26.427195,7.98,-2.015,0.142
26.437739,7.7,-1.667,-0.223
26.448283,7.49,-1.995,-0.778
26.458827,7.63,-1.845,-0.823
26.469371,7.63,-1.038,-0.965
26.479915,7.56,-0.471,-1.362
26.490459,7.14,-0.317,-1.833
26.501003,6.65,-0.167,-1.877
26.511547,6.23,-0.146,-1.59
26.522077,6.16,0.345,-1.148
26.532607,5.6,0.576,-1.249
26.543137,5.18,1.261,-1.91
26.553667,4.9,1.78,-2.032
26.564197,5.04,1.804,-2.17
26.574727,4.55,1.995,-1.638
26.585257,4.48,1.525,-0.584
26.595787,4.55,0.997,-0.819
26.606317,4.34,0.774,-1.569
26.616847,4.13,1.249,-1.841
26.627377,4.27,1.528,-2.218
26.637907,3.78,1.561,-1.999
26.648437,3.5,2.121,-1.545
26.658985,3.15,2.153,-1.326
26.669533,2.52,2.838,-0.779
26.680081,2.59,2.891,-0.272
26.690629,2.94,3.349,-0.049
26.701177,2.66,3.495,0.332
26.711725,2.17,3.873,0.612
26.722273,2.31,4.42,1.135
26.732821,2.1,5.406,1.593
26.743369,1.75,6.44,1.775
26.753917,1.61,7.206,2.266
26.764465,1.54,8.337,3.105
26.775013,1.05,9.655,3.693
26.785537,0.98,11.269,3.409
26.796061,0.91,13.301,2.772
26.806585,0.28,16.159,2.281
26.817109,0.21,18.722,1.453
26.827633,0.28,22.363,0.958
26.838157,0.21,26.617,0.215
26.848681,0.56,32.213,-0.077
26.859205,1.12,39.398,-0.516
26.869729,2.17,48.007,-0.562
26.880253,3.5,57.366,0.377
26.890777,4.97,67.678,2.764
26.901301,6.3,78.797,6.217
26.911825,8.12,90.436,10.757
26.922336,9.94,102.176,15.529
26.932847,11.34,113.867,20.575
26.943358,11.62,125.011,25.099
26.953869,11.55,134.759,28.666
26.96438,11.9,142.217,31.118
26.974891,11.41,148.807,32.849
26.985402,10.78,153.884,33.886
26.995913,10.71,157.918,34.385
27.006424,10.64,160.696,33.95
27.016935,10.71,162.01,33.756
27.027446,10.57,161.754,33.995
27.037957,10.5,160.153,34.21
27.048468,10.71,157.549,33.253
27.05895,10.71,153.904,31.758
27.069432,10.5,149.581,30.071
27.079914,10.15,144.216,29.054
27.090396,9.24,139.021,28.28
27.100878,8.54,133.6,27.182
27.11136,7.7,127.724,25.435
27.121842,7.7,121.661,23.94
27.132324,6.72,115.984,23.081
27.142806,5.81,110.112,22.117
27.153288,5.53,104.151,20.852
27.16377,5.32,98.697,18.327
27.174252,5.04,93.182,16.146
27.18473,4.83,87.403,15.056
27.195208,3.78,81.957,14.096
27.205686,3.78,76.503,12.779
27.216164,2.94,71.248,11.141
27.226642,1.33,65.733,8.96
27.23712,0.49,60.862,6.751
27.247598,-0.07,56.475,4.627
27.258076,-0.63,52.168,2.446
27.268554,-0.98,48.173,0.107
27.279032,-1.19,44.13,-1.957
27.28951,-1.96,39.945,-3.619
27.299988,-2.1,36.531,-5.216
27.310444,-1.68,32.978,-6.837
27.3209,-1.75,29.43,-7.676
27.331356,-1.68,25.707,-8.333
27.341812,-1.75,22.524,-8.823
27.352268,-1.68,19.605,-9.195
27.362724,-1.75,17.074,-9.357
27.37318,-2.17,14.718,-9.702
27.383636,-2.59,12.776,-9.973
27.394092,-2.87,10.992,-9.932
27.404548,-3.57,8.709,-9.482
27.415004,-4.13,7.034,-8.853
27.42546,-4.34,5.372,-8.293
27.435916,-4.9,3.993,-7.328
27.446372,-5.25,2.975,-6.797
27.456817,-5.88,1.921,-6.058
27.467262,-6.02,0.393,-5.049
27.477707,-6.16,-0.337,-4.537
27.488152,-6.51,-0.881,-4.278
27.498597,-6.44,-1.335,-3.718
27.509042,-6.02,-1.987,-2.838
27.519487,-5.39,-2.535,-2.153
27.529932,-5.18,-2.843,-1.212
27.540377,-5.67,-3.666,-0.575
27.550822,-4.97,-4.152,-0.235
27.561267,-4.06,-4.343,0.443
27.571737,-3.85,-4.931,0.552
27.582207,-3.5,-5.211,0.929
27.592677,-3.43,-5.563,1.72
27.603147,-2.73,-6.094,1.911
27.613617,-2.38,-6.443,2.276
27.624087,-2.31,-6.845,2.134
27.634557,-1.96,-7.364,2.256
27.645027,-2.24,-7.408,2.106
27.655497,-2.03,-7.587,1.505
27.665967,-1.75,-7.538,1.23
27.676437,-1.96,-8.053,0.926
27.686907,-1.82,-7.879,0.743
27.697367,-1.68,-7.741,0.767
27.707827,-1.47,-7.83,0.467
27.718287,-1.54,-7.932,0.236
27.728747,-1.61,-7.968,0.443
27.739207,-1.4,-7.936,0.662
27.749667,-1.4,-7.729,0.699
27.760127,-0.98,-7.789,1.043
27.770587,-0.7,-7.988,1.364
27.781047,-0.7,-7.871,1.1
27.791507,-0.21,-7.838,1.319
27.801967,-0.07,-7.806,1.538
27.812427,0.28,-7.806,1.538
27.822887,0.91,-8.179,2.041
27.833385,1.26,-7.923,1.802
27.843883,1.54,-7.615,2.069
27.854381,1.75,-7.81,1.964
27.864879,2.1,-7.254,1.635
27.875377,2.38,-7.607,1.218
27.885875,2.45,-7.656,1.493
27.896373,2.73,-7.875,1.526
27.906871,3.15,-7.631,1.355
27.917369,3.64,-7.368,1.473
27.927867,3.85,-7.343,1.335
27.938365,4.2,-7.169,1.153
27.948863,4.34,-7.238,1.14
27.959376,4.69,-6.837,1.282
27.969889,4.9,-6.966,1.615
27.980402,5.18,-7.011,1.465
27.990915,5.39,-7.068,1.384
28.001428,5.74,-7.08,1.453
28.011941,6.72,-7.291,1.842
28.022454,7.42,-7.639,2.207
28.032967,9.1,-8.333,2.511
28.04348,11.06,-9.407,1.753
28.053993,13.86,-11.054,0.61
28.064506,16.66,-13.576,-0.404
28.075019,19.18,-17.051,-0.448
28.085532,21.42,-20.733,-0.528
28.09608,25.48,-24.432,-1.323
28.106628,29.82,-27.822,-3.058
28.117176,33.46,-30.786,-4.789
28.127724,35.63,-33.605,-6.139
28.138272,35.84,-36.184,-7.233
28.14882,35.07,-38.455,-8.06
28.159368,33.18,-40.567,-8.575
28.169916,30.8,-42.133,-8.566
28.180464,29.19,-43.422,-7.301
28.191012,27.72,-43.985,-4.913
28.20156,25.9,-44.025,-3.072
28.212108,23.38,-44.171,-2.244
28.222675,21.56,-44.005,-1.575
28.233242,21.07,-42.987,0.31
28.243809,20.65,-41.324,2.167
28.254376,19.25,-38.964,3.294
28.264943,17.92,-36.738,3.971
28.27551,17.15,-34.572,4.992
28.286077,16.66,-31.292,6.14
28.296644,16.1,-27.678,7.416
28.307211,15.4,-24.227,8.807
28.317778,14.42,-20.606,9.232
28.328345,12.53,-16.503,8.534
28.338912,10.64,-12.622,8.294
28.349479,8.68,-9.005,9.145
28.360067,6.23,-5.323,11.643
28.370655,3.64,-1.255,13.568
28.381243,0.49,2.244,14.683
28.391831,-1.61,6.174,15.376
28.402419,-2.38,10.383,15.691
28.413007,-2.52,14.203,15.796
28.423595,-3.01,17.362,16.424
28.434183,-3.36,19.892,16.586
28.444771,-3.64,21.396,15.714
28.455359,-3.22,21.34,15.633
28.465947,-2.8,20.699,16.444
28.476535,-2.8,19.179,17.811
28.487123,-2.59,16.94,18.411
28.497704,-1.68,14.264,17.868
28.508285,-0.84,12.443,16.908
28.518866,-0.56,10.042,15.205
28.529447,-0.77,7.22,14.281
28.540028,-0.91,4.929,13.166
28.550609,-1.19,2.941,11.536
28.56119,-1.61,0.829,9.813
28.571771,-2.17,-1.479,7.984
28.582352,-2.8,-2.781,6.902
28.592933,-3.71,-4.103,5.532
28.603514,-4.27,-4.926,3.752
28.614095,-4.41,-5.851,1.74
28.624676,-4.27,-6.512,1.055
28.635253,-3.99,-6.638,0.962
28.64583,-3.5,-7.133,0.946
28.656407,-3.29,-7.295,1.059
28.666984,-3.01,-7.781,1.4
28.677561,-2.66,-7.846,2.171
28.688138,-2.31,-7.923,3.01
28.698715,-2.03,-7.655,3.91
28.709292,-2.17,-7.639,4.624
28.719869,-2.24,-7.379,5.167
28.730446,-2.31,-6.97,5.666
28.741023,-2.59,-6.479,6.108
28.7516,-2.59,-5.652,6.254
28.762185,-2.24,-4.906,6.456
28.77277,-2.1,-4.561,6.517
28.783355,-1.89,-4.111,6.383
28.79394,-1.89,-3.43,6.148
28.804525,-1.47,-2.582,5.373
28.81511,-1.4,-2.173,4.664
28.825695,-1.54,-1.042,4.294
28.83628,-1.96,-0.539,3.459
28.846865,-2.03,0.021,2.705
28.85745,-2.03,0.88,1.861
28.868035,-2.03,1.797,1.099
28.87862,-2.1,1.886,0.19
28.889205,-2.31,2.879,-0.203
28.89976,-2.17,3.56,-0.438
28.910315,-2.38,4.071,-0.917
28.92087,-2.24,4.452,-1.063
28.931425,-1.75,4.643,-0.532
28.94198,-1.26,4.773,0.344
28.952535,-1.05,4.87,1.001
28.96309,-0.56,4.518,1.792
28.973645,-0.07,4.116,2.858
28.9842,0.49,3.541,4.107
28.994755,1.4,2.612,4.939
29.00531,1.89,1.789,5.575
29.015865,2.24,1.302,5.916
29.02642,3.22,0.617,6.577
29.03697,3.5,-0.396,6.683
29.04752,3.78,-0.92,6.022
29.05807,4.13,-1.552,5.981
29.06862,3.99,-1.986,5.62
29.07917,4.06,-2.246,5.077
29.08972,3.99,-2.887,4.68
29.10027,3.85,-3.458,4.295
29.11082,3.78,-3.511,3.788
29.12137,3.29,-3.244,3.48
29.13192,2.73,-3.572,2.924
29.14247,2.1,-3.706,2.474
29.15302,1.33,-3.467,1.521
29.163528,0.91,-3.475,1.164
29.174036,0.56,-2.765,0.365
29.184544,0.0,-2.461,-0.15
29.195052,0.07,-2.242,-0.182
29.20556,0.42,-1.788,-0.742
29.216068,0.42,-1.277,-1.22
29.226576,-0.07,-0.836,-1.711
29.237084,-0.28,-0.02,-1.496
29.247592,0.0,0.567,-1.606
29.2581,0.0,1.005,-1.671
29.268608,0.14,1.589,-1.355
29.279116,0.28,1.991,-1.213
29.289624,0.35,2.332,-0.726
29.300132,0.56,2.372,-0.15
29.31064,0.56,2.425,0.357
29.321124,1.05,1.865,1.111
29.331608,1.26,1.845,2.031
29.342092,1.82,1.184,2.554
29.352576,2.03,0.706,3.252
29.36306,2.24,-0.101,3.394
29.373544,2.45,-0.652,3.297
29.384028,2.66,-0.551,3.528
29.394512,3.08,-1.054,3.155
29.404996,2.66,-1.33,3.106
29.41548,2.73,-1.682,2.689
29.425936,2.73,-1.691,2.332
29.436392,2.52,-1.828,2.308
29.446848,2.03,-1.715,2.47
29.457304,1.19,-1.22,2.486
29.46776,0.84,-0.953,2.178
29.478216,0.56,-0.758,2.283
29.488672,0.14,-0.734,2.145
29.499128,-0.56,-0.588,2.526
29.509584,-0.84,-0.117,2.68
29.52004,-1.26,0.021,2.705
29.530496,-1.33,-0.036,2.624
29.540952,-1.47,-0.004,2.843
29.551408,-1.68,-0.154,2.887
29.56186,-1.47,-0.04,3.049
29.572312,-1.12,-0.028,2.98
29.582764,-0.49,-0.567,2.814
29.593216,-0.35,-0.75,2.64
29.603668,0.14,-0.957,2.603
29.61412,0.35,-1.188,2.705
29.624572,0.7,-0.92,2.397
29.635024,0.91,-0.721,2.076
29.645476,1.33,-1.062,1.59
29.655928,1.4,-0.924,1.614
29.66638,1.82,-0.75,1.432
29.676832,1.89,-0.993,1.602
29.687295,2.24,-1.095,1.371
29.697758,2.1,-1.379,0.965
29.708221,2.17,-1.285,0.84
29.718684,2.17,-0.758,1.075
29.729147,2.59,-0.661,0.523
29.73961,2.59,-1.002,0.037
29.750073,2.38,-0.612,0.247
29.760536,2.45,-0.393,0.215
29.770999,2.59,-0.243,0.17
29.781462,2.24,-0.462,0.203
29.791925,2.87,-0.357,0.008
29.802388,2.59,-0.15,0.045
29.812851,2.66,0.012,-0.069
29.823293,2.8,0.345,0.061
29.833735,2.66,-0.069,-0.012
29.844177,2.52,-0.024,0.138
29.854619,2.66,0.3,-0.089
29.865061,2.31,-0.555,0.329
29.875503,2.52,-0.669,0.166
29.885945,2.38,-0.43,0.422
29.896387,2.17,-0.227,0.884
29.906829,2.17,-0.15,1.253
29.917271,2.03,-0.345,1.148
29.927713,1.75,-0.19,0.677
29.938155,1.4,-0.259,0.665
29.948597,1.05,-0.089,0.908
29.959043,0.77,-0.032,0.989
29.969489,0.84,0.199,0.888
29.979935,0.84,0.154,0.738
29.990381,0.77,0.162,1.095
30.000827,0.77,0.02,1.496
30.011273,0.84,-0.138,1.184
30.021719,1.05,-0.336,1.504
30.032165,1.12,-0.324,1.436
30.042611,1.05,-0.417,1.561
30.053057,1.05,-0.6,1.387
30.063503,0.98,-0.669,1.375
30.073949,0.91,-0.75,1.432
30.084381,0.63,-0.92,1.188
30.094813,0.63,-0.989,1.176
30.105245,0.42,-0.839,1.131
30.115677,0.77,-0.92,1.188
30.126109,1.05,-1.301,1.334
30.136541,0.98,-1.407,1.529
30.146973,1.12,-1.593,1.78
30.157405,1.05,-1.654,2.125
30.167837,1.47,-1.768,1.963
30.178269,1.61,-1.833,1.525
30.188701,1.82,-1.602,1.424
30.199133,1.96,-1.245,1.415
30.209565,1.75,-0.888,1.407
30.219983,1.47,-1.058,1.164
30.230401,1.33,-0.669,1.375
30.240819,1.19,-0.511,1.687
30.251237,1.4,-0.259,1.873
30.261655,1.75,0.284,1.614
30.272073,2.1,0.333,1.338
30.282491,2.1,0.677,1.399
30.292909,1.75,1.355,1.589
30.303327,1.68,1.582,1.914
30.313745,1.4,1.947,2.262
30.324163,1.26,1.991,2.412
30.334581,1.19,1.866,2.319
30.344999,1.75,1.602,2.202
30.355414,2.38,1.375,1.877
30.365829,3.01,1.018,0.677
30.376244,3.99,0.774,-0.361
30.386659,4.69,0.572,-0.823
30.397074,4.97,0.182,-1.034
30.407489,4.48,-0.223,-0.75
30.417904,3.92,-0.414,-1.281
30.428319,2.73,-0.775,-2.056
30.438734,1.82,-0.69,-2.538
30.449149,1.12,-0.065,-2.855
30.459564,-0.14,0.097,-2.968
30.469979,-0.63,0.425,-2.413
30.480408,-0.84,0.673,-0.592
30.490837,-1.47,0.142,0.807
30.501266,-1.89,-0.04,1.841
30.511695,-1.47,0.211,2.027
30.522124,-0.35,0.515,1.512
30.532553,0.84,0.848,0.434
30.542982,2.17,1.022,0.251
30.553411,3.71,1.549,0.486
30.56384,5.39,1.626,0.855
30.574269,7.07,1.841,1.249
30.584698,7.21,2.028,2.206
30.595127,6.93,1.829,2.526
30.933657,4.13,-16.18,-1.36
30.944086,4.27,-15.912,-0.46
30.954515,3.85,-15.863,0.473
30.964944,3.08,-15.502,1.247
30.975373,3.01,-14.979,1.908
30.985802,1.96,-13.896,3.023
30.996231,0.63,-13.421,3.96
31.00666,0.14,-12.233,4.88
31.017089,0.0,-11.378,5.67
31.027518,-0.35,-9.804,6.019
31.037947,-0.49,-8.016,6.761
31.048376,-0.84,-6.487,6.959
31.058805,-1.19,-5.084,7.065
31.069234,-1.47,-3.827,6.789
31.079663,-1.75,-3.073,6.14
31.090092,-1.54,-2.246,6.286
31.100521,-1.4,-1.893,6.703
31.11095,-1.47,-1.191,6.756
31.121379,-1.12,-1.204,5.616
31.131808,-0.42,-1.042,4.294
31.142237,1.33,-1.395,2.668
31.152666,2.38,-1.906,1.939
31.163095,1.96,-1.837,1.951
31.173524,0.7,-1.82,1.456
31.183953,-0.84,-1.983,0.361
31.194382,-1.89,-2.291,0.094
31.204811,-2.66,-1.938,0.511
31.21524,-3.01,-2.185,1.107
31.225669,-3.08,-2.676,1.874
31.236098,-3.22,-3.3,2.19
31.246527,-2.24,-3.937,2.575
31.256956,-2.03,-4.346,3.285
31.267409,-2.24,-4.942,4.246
31.277862,-2.87,-5.157,5.061
31.288315,-3.29,-5.003,5.799
31.298768,-3.71,-5.206,5.337
31.309221,-3.71,-5.757,5.24
31.319674,-3.5,-5.948,5.917
31.330127,-2.94,-6.56,6.165
31.34058,-2.45,-7.42,5.8
31.351033,-1.68,-8.016,5.552
31.361486,-0.91,-7.838,4.944
31.371939,-0.14,-8.227,3.525
31.382392,0.56,-8.065,2.203
31.392845,1.33,-7.834,0.893
31.403329,1.61,-7.506,0.24
31.413813,2.03,-7.283,-0.218
31.424297,1.47,-6.374,-0.129
31.434781,1.68,-5.15,-0.624
31.445265,1.47,-4.375,-0.985
31.455749,1.47,-3.637,-1.139
31.466233,1.47,-2.429,-1.139
31.476717,1.47,-1.403,-1.314
31.487201,1.26,-0.637,-0.823
31.497685,0.77,0.142,-0.401
31.508169,0.7,0.308,0.268
31.518653,-0.07,0.588,1.099
31.529152,-0.42,0.868,1.93
31.539651,-0.35,0.941,2.725
31.55015,-0.21,0.957,3.438
31.560649,0.42,1.031,4.233
31.571148,0.56,0.799,4.335
31.581647,0.91,0.747,5.036
31.592146,1.19,0.471,4.988
31.602645,1.54,0.422,5.263
31.613144,2.24,0.191,5.365
31.623643,3.01,-0.141,5.235
31.634142,3.64,-0.141,5.235
31.644641,4.2,-0.599,5.012
31.65514,4.27,-0.794,4.907
31.665639,4.34,-1.35,4.027
31.67619,4.06,-1.443,2.944
31.686741,3.99,-1.147,2.072
31.697292,3.36,-1.196,1.14
31.707843,2.8,-0.9,0.268
31.718394,2.38,-0.685,-0.547
31.728945,2.38,-0.426,-1.212
31.739496,1.75,-0.158,-1.521
31.750047,1.26,-0.243,-1.038
31.760598,1.33,0.097,-0.551
31.771149,0.98,0.328,-0.653
31.7817,0.91,0.324,-0.227
31.792273,0.14,0.604,0.604
31.802846,0.0,1.014,1.103
31.813419,-0.35,1.286,1.577
31.823992,-0.14,0.961,1.804
31.834565,0.14,0.787,1.987
31.845138,0.42,0.645,2.388
31.855711,0.63,0.321,2.615
31.866284,0.98,0.175,2.234
31.876857,1.68,0.069,2.429
31.88743,1.89,-0.239,2.161
31.898003,2.03,-0.377,2.137
31.908576,2.31,-0.803,2.133
31.919149,2.45,-0.985,1.959
31.929712,2.45,-1.086,1.728
31.940275,2.1,-1.22,1.277
31.950838,2.17,-1.103,1.014
31.961401,1.82,-0.847,0.775
31.971964,1.82,-0.941,0.9
31.982527,1.47,-0.766,0.718
31.99309,1.61,-0.515,0.904
32.003653,1.54,-0.491,0.766
32.014216,1.26,-0.316,0.584
32.024779,1.05,-0.162,0.114
32.035342,1.05,0.365,0.349
32.045905,1.05,0.531,1.018
32.056468,0.91,0.406,0.924
32.067031,0.91,0.43,0.787
32.077598,1.26,0.649,0.754
32.088165,1.26,0.483,1.293
32.098732,1.33,0.641,1.606
32.109299,1.96,0.41,1.707
32.119866,2.45,0.296,1.545
32.130433,2.52,0.288,1.188
32.141,2.59,-0.458,0.985
32.151567,2.17,-0.243,1.379
32.162134,2.31,-0.048,1.484
32.172701,2.31,-0.207,1.172
32.183268,2.31,-0.353,0.791
32.193844,2.31,-0.71,0.799
32.20442,2.03,-0.847,0.775
32.214996,1.82,-0.515,0.904
32.225572,1.68,-0.551,1.111
32.236148,2.45,-0.977,1.107
32.246724,2.38,-0.864,1.269
32.2573,2.1,-0.186,1.46
32.267876,1.96,-0.45,1.342
32.278452,2.1,-0.458,0.985
32.289028,1.96,-0.458,0.985
32.299604,2.24,-0.288,1.229
32.31018,2.24,-0.373,1.711
32.320756,2.8,-0.819,1.419
32.331318,2.94,-0.839,1.131
32.34188,2.87,-0.782,1.213
32.352442,3.78,-1.143,0.438
32.363004,3.5,-0.649,0.454
32.373566,3.71,-0.827,-0.146
32.384128,3.85,-0.629,-0.466
32.39469,3.78,-0.543,0.26
32.405252,3.29,-0.774,0.361
32.415814,2.66,-0.847,0.775
32.426376,2.31,-0.827,1.063
32.436938,2.03,-0.592,1.744
32.4475,1.47,-0.49,1.975
32.458062,1.19,-0.409,1.918
32.468605,0.91,-0.34,1.93
32.479148,0.56,-0.644,2.445
32.489691,0.14,-0.336,2.713
32.500234,-0.28,-0.774,2.778
32.510777,0.07,-1.407,2.737
32.52132,0.07,-1.966,2.283
32.531863,0.0,-1.788,1.675
32.542406,0.07,-1.833,1.525
32.552949,0.56,-1.719,1.687
32.563492,0.42,-1.719,1.687
32.574035,0.21,-1.752,1.468
32.584578,0.35,-1.439,1.31
32.595121,0.84,-1.07,1.233
32.605645,1.05,-0.969,1.464
32.616169,1.33,-0.661,1.732
32.626693,1.4,-0.811,1.776
32.637217,1.12,-0.997,2.028
32.647741,1.75,-0.685,1.869
32.658265,1.96,-0.799,1.707
32.668789,1.96,-0.799,1.707
32.679313,2.17,-0.957,1.395
32.689837,2.24,-0.685,0.661
32.700361,1.96,-0.405,0.284
32.710885,2.1,-0.418,0.353
32.721415,1.89,-0.612,0.247
32.731945,1.82,-0.462,0.203
32.742475,1.61,-0.373,0.503
32.753005,1.05,-0.13,0.333
32.763535,0.91,-0.272,0.734
32.774065,1.05,-0.312,1.367
32.784595,1.12,-0.511,1.687
32.795125,1.05,-0.43,1.63
32.805655,1.4,-0.474,1.48
32.816185,1.33,-0.786,1.638
32.826715,1.4,-0.754,1.857
32.837245,1.33,-0.936,1.683
32.847765,1.12,-0.908,1.119
32.858285,0.91,-0.608,1.03
32.868805,0.77,-0.495,1.192
32.879325,1.12,-0.819,1.419
32.889845,0.98,-0.876,1.338
32.900365,0.98,-0.762,1.5
32.910885,1.05,-0.442,1.699
32.921405,1.05,-0.097,1.76
32.931925,0.91,-0.231,1.31
32.942445,1.05,-0.32,1.01
32.952965,0.84,-0.681,1.444
32.963485,0.49,-0.936,1.683
32.974005,0.35,-1.095,1.371
32.984507,1.05,-0.981,1.533
32.995009,1.05,-0.673,1.801
33.005511,0.77,-0.864,1.269
33.016013,1.05,-0.912,1.545
33.026515,1.26,-0.718,1.65
33.037017,0.98,-0.827,2.271
33.047519,0.98,-0.965,2.247
33.058021,1.19,-1.078,2.084
33.068523,0.91,-1.111,1.865
33.079025,1.47,-1.066,2.015
33.089527,1.75,-0.997,2.028
33.100029,1.54,-1.099,1.797
33.110531,1.61,-1.119,1.509
33.121033,1.75,-1.314,1.403
33.131514,1.75,-1.326,1.472
33.141995,1.82,-1.005,1.671
33.152476,1.47,-1.261,1.91
33.162957,1.12,-1.626,1.561
33.173438,1.05,-1.151,1.29
33.183919,0.84,-0.819,1.419
33.1944,0.98,-0.742,1.788
33.204881,0.84,-0.88,1.764
33.215362,1.12,-0.73,1.719
33.225843,1.12,-0.673,1.801
33.236324,1.4,-0.904,1.902
33.246805,1.33,-0.628,1.951
33.257296,1.19,-0.786,1.638
33.267787,1.33,-0.624,1.525
33.278278,1.47,-0.949,1.752
33.288769,1.19,-1.09,2.153
33.29926,0.91,-1.184,2.279
33.309751,0.84,-1.541,2.287
33.320242,1.26,-1.768,1.963
33.330733,1.26,-1.975,1.926
33.341224,1.54,-1.861,2.089
33.351715,1.82,-1.78,2.032
33.362206,2.45,-2.315,1.44
33.372697,3.22,-1.885,1.018
33.383172,3.64,-1.529,1.01
33.393647,4.27,-0.701,1.156
33.404122,4.41,-0.146,0.827
33.414597,3.99,0.061,0.864
33.425072,3.5,0.43,0.787
33.435547,2.87,0.3,1.119
33.446022,2.31,0.499,2.007
33.456497,2.17,0.333,2.546
33.466972,1.68,0.373,3.122
33.477447,1.4,0.256,3.386
33.487922,1.26,0.142,3.224
33.498397,0.7,-0.279,2.794
33.508872,0.7,-0.45,2.551
33.519347,0.63,-0.831,2.697
33.529835,0.49,-1.358,2.462
33.540323,0.42,-1.841,2.376
33.550811,0.28,-1.885,2.226
33.561299,0.35,-2.06,2.409
33.571787,0.63,-2.068,2.052
33.582275,0.63,-2.303,1.371
33.592763,0.63,-2.34,1.578
33.603251,0.77,-1.687,1.906
33.613739,0.35,-1.861,2.089
33.624227,0.35,-1.906,1.939
33.634715,0.28,-1.281,1.622
33.645185,0.21,-1.237,1.772
33.655655,0.7,-1.058,2.372
33.666125,0.84,-1.573,2.068
33.676595,1.05,-1.224,1.703
33.687065,1.26,-0.932,1.257
33.697535,1.26,-0.677,1.018
33.708005,1.26,-0.722,0.868
33.718475,1.12,-0.592,0.535
33.728945,1.19,-0.499,0.41
33.739415,1.26,-0.604,0.604
33.749885,1.4,-0.122,0.689
33.760355,1.33,-0.369,1.285
33.770825,1.19,-0.223,1.667
33.781301,1.26,-0.34,1.93
33.791777,1.12,-0.109,1.829
33.802253,1.4,-0.202,1.955
33.812729,1.05,-0.478,1.906
33.823205,1.05,-0.166,1.748
33.833681,1.4,-0.499,1.618
33.844157,1.33,-1.018,1.74
33.854633,1.26,-1.224,1.703
33.865109,2.17,-1.476,1.517
33.875585,2.24,-1.614,1.492
33.886061,2.1,-1.719,1.687
33.896537,2.38,-1.833,1.525
33.907017,1.82,-1.934,1.294
33.917497,1.96,-1.602,1.424
33.927977,1.54,-1.2,1.565
33.938457,1.61,-1.37,1.322
33.948937,1.68,-1.338,1.541
33.959417,1.4,-1.143,1.646
33.969897,1.75,-0.904,1.902
33.980377,1.89,-0.94,2.109
33.990857,2.1,-1.074,1.659
34.001337,1.68,-0.9,1.476
34.011817,1.82,-0.714,1.225
34.022297,1.89,-0.819,1.419
34.032777,1.89,-1.062,1.59
34.043237,1.75,-1.111,1.865
34.053697,1.61,-0.973,1.89
34.064157,1.33,-1.042,1.878
34.074617,1.75,-1.131,1.578
34.085077,1.96,-1.281,1.622
34.095537,2.17,-1.143,1.646
34.105997,2.24,-1.314,1.403
34.116457,2.17,-1.338,1.541
34.126917,2.45,-1.326,1.472
34.137377,2.24,-1.407,1.529
34.147837,2.03,-1.293,1.691
34.158297,2.17,-1.387,1.817
34.168757,1.82,-1.314,1.403
34.179216,1.68,-1.001,1.245
34.189675,1.96,-0.9,1.476
34.200134,1.47,-0.855,1.626
34.210593,1.54,-0.75,1.432
34.221052,1.54,-1.083,1.302
34.231511,1.68,-1.014,1.314
34.24197,1.89,-0.831,1.488
34.252429,1.96,-0.981,1.533
34.262888,1.96,-1.119,1.509
34.273347,1.89,-1.176,1.428
34.283806,1.75,-1.086,1.728
34.294265,2.31,-1.293,1.691
34.304747,2.73,-1.824,1.882
34.315229,3.22,-1.362,1.679
34.325711,3.64,-1.233,1.346
34.336193,3.85,-1.464,1.448
34.346675,4.34,-1.593,1.78
34.357157,4.34,-1.76,2.32
34.367639,4.34,-1.954,2.214
34.378121,3.92,-1.788,1.675
34.388603,2.66,-2.218,0.888
34.399085,1.75,-1.561,0.791
34.409567,1.05,-1.147,0.864
34.420049,0.35,-1.168,0.576
34.430546,-0.77,-0.953,0.969
34.441043,-1.05,-0.965,1.038
34.45154,-1.26,-0.989,1.176
34.462037,-0.91,-0.855,1.626
34.472534,-0.84,-0.592,1.744
34.483031,-1.05,-0.746,2.214
34.493528,-1.05,-0.693,2.721
34.504025,-0.7,-0.093,2.542
34.514522,-0.42,-0.117,2.68
34.525019,-0.28,0.045,2.567
34.535516,0.21,-0.069,2.405
34.546013,0.63,0.0,2.417
34.55651,0.98,0.24,2.672
34.567031,1.54,0.033,2.636
34.577552,1.33,-0.073,2.83
34.588073,1.26,0.053,2.924
34.598594,1.12,0.333,2.546
34.609115,0.91,-0.012,2.486
34.619636,1.19,0.061,2.072
34.630157,1.33,0.041,1.784
34.640678,1.4,-0.215,2.023
34.651199,1.61,-0.292,1.654
34.66172,2.73,-1.37,1.322
34.672241,3.22,-0.977,1.107
34.682762,3.36,-1.091,0.945
34.693267,3.92,-1.245,0.207
34.703772,4.62,-0.714,0.016
34.714277,4.62,-0.908,-0.089
34.724782,4.62,-0.904,-0.515
34.735287,4.69,-0.916,-0.446
34.745792,4.55,-0.827,-0.146
34.756297,4.41,-0.474,0.272
34.766802,3.78,-0.864,0.061
34.777307,3.08,-1.038,0.243
34.787812,2.87,-0.928,0.831
34.798317,2.8,-0.827,1.063
34.808822,2.52,-0.714,1.225
34.819327,2.31,-0.555,1.537
34.829834,2.24,-0.462,1.411
34.840341,1.82,-0.243,1.379
34.850848,2.03,-0.308,0.941
34.861355,1.68,-0.47,1.054
34.871862,1.4,-0.519,1.33
34.882369,1.54,-0.438,1.273
34.892876,1.4,-0.462,1.411
34.903383,0.98,-0.507,1.261
34.91389,0.98,-0.349,1.573
34.924397,0.63,-0.336,1.504
34.934904,0.56,-0.085,1.691
34.945411,0.56,-0.211,1.598
34.955906,0.56,-0.567,1.606
34.966401,0.77,-0.555,1.537
34.976896,1.12,-0.117,1.472
34.987391,0.98,-0.462,1.411
34.997886,0.98,-0.336,1.504
35.008381,1.12,-0.105,1.403
35.018876,1.47,-0.312,1.367
35.029371,1.4,-0.267,1.517
35.039866,1.68,-0.186,1.46
35.050361,1.89,0.089,1.508
35.060856,2.24,-0.324,1.436
35.071351,2.17,-0.048,1.484
35.081846,2.59,-0.357,1.217
35.092343,2.8,-0.263,1.091
35.10284,3.08,-0.316,0.584
35.113337,3.78,-0.568,0.397
35.123834,3.64,-0.572,0.823
35.134331,3.36,-0.973,0.681
35.144828,3.71,-1.075,0.45
35.155325,3.57,-1.139,0.012
35.165822,3.36,-1.257,0.276
35.176319,3.08,-1.727,0.122
35.186816,3.36,-1.367,-0.312
35.197313,3.15,-1.237,-0.645
35.20781,3.22,-0.819,-0.997
35.218341,2.94,-0.519,-1.087
35.228872,3.22,-0.175,-1.026
35.239403,3.36,0.357,-1.217
35.249934,2.73,0.624,-1.525
35.260465,3.08,0.324,-1.436
35.270996,2.66,0.381,-1.354
35.281527,2.87,0.381,-1.354
35.292058,3.57,0.722,-0.868
35.302589,3.64,0.495,0.016
35.31312,3.15,-0.243,0.17
35.323651,2.87,-0.341,-0.487
35.334182,3.29,-0.41,-1.707
35.344706,3.99,-0.175,-2.234
35.35523,4.55,-0.24,-2.672
35.365754,5.6,-0.017,-3.13
35.376278,5.88,0.024,-3.763
35.386802,6.09,-0.11,-4.213
35.397326,5.67,0.21,-4.014
35.40785,4.97,0.656,-3.723
35.418374,4.69,0.835,-3.122
35.428898,4.06,1.058,-3.581
35.439422,3.36,1.589,-3.771
35.449946,2.59,1.524,-3.001
35.46047,2.45,1.804,-2.17
35.470994,1.54,1.638,-1.63
35.481529,0.84,1.861,-0.88
35.492064,0.63,1.809,-0.179
35.502599,0.42,2.032,0.571
35.513134,0.35,1.646,1.143
35.523669,0.07,1.569,0.774
35.534204,0.35,1.111,0.551
35.544739,0.28,1.091,0.263
35.555274,0.63,0.941,0.308
35.565809,0.98,0.3,-0.089
35.576344,1.19,-0.114,-0.162
35.586879,1.26,-0.114,-0.162
35.597414,1.75,-0.393,0.215
35.607949,2.03,-0.718,0.442
35.618484,1.89,-0.734,0.937
35.629004,1.96,-0.689,1.087
35.639524,1.89,-0.361,1.642
35.650044,2.31,0.187,2.165
35.660564,2.66,0.6,2.238
35.671084,3.15,1.152,2.336
35.681604,2.8,0.848,2.851
35.692124,2.87,0.913,3.288
35.702644,3.01,1.185,3.763
35.713164,3.08,1.205,4.051
35.723684,2.45,0.933,3.576
35.734204,2.31,0.828,3.771
35.744735,1.89,0.678,3.816
35.755266,1.54,0.406,3.341
35.765797,1.75,-0.004,2.843
35.776328,2.24,-0.369,2.494
35.786859,2.52,-0.928,2.04
35.79739,2.87,-1.257,1.484
35.807921,2.94,-0.75,1.432
35.818452,2.94,-0.762,1.5
35.828983,2.73,-0.349,1.573
35.839514,2.59,-0.044,2.267
35.850045,2.59,-0.06,2.761
35.860576,2.73,0.446,2.709
35.871106,2.87,0.807,2.275
35.881636,2.87,1.42,2.027
35.892166,2.73,1.971,2.125
35.902696,2.52,2.052,2.068
35.913226,2.66,1.87,1.893
35.923756,2.38,2.06,1.216
35.934286,2.1,2.072,1.147
35.944816,2.24,1.809,1.03
35.955346,1.82,2.162,1.447
35.965876,1.61,1.533,0.981
35.976406,1.47,1.801,0.673
35.986936,1.82,2.32,0.551
35.997466,2.1,2.299,0.263
36.007996,1.96,2.68,0.117
36.018526,2.24,2.279,-0.025
36.029056,2.24,2.636,-0.033
36.039586,2.24,2.684,-0.309
36.050116,2.38,2.538,-0.69
36.060646,2.45,2.859,-0.491
36.071176,2.52,3.179,-0.292
36.081706,2.31,3.479,-0.382
36.092236,2.38,3.836,-0.39
36.102766,2.73,4.168,-0.26
36.113296,2.38,3.958,0.129
36.123826,2.38,4.25,0.892
36.134352,2.24,4.89,1.289
36.144878,2.03,5.223,1.419
36.155404,2.03,5.843,1.528
36.16593,2.38,5.499,1.467
36.176456,2.24,5.981,1.552
36.186982,2.59,6.144,1.439
36.197508,2.66,6.663,1.317
36.208034,2.66,6.399,1.199
36.21856,3.36,6.813,1.272
36.229086,3.36,6.788,1.41
36.239612,3.5,6.926,1.435
36.250138,3.15,6.93,1.009
36.260664,3.36,6.898,0.79
36.27119,3.43,6.707,0.259
36.281795,3.22,6.399,-0.009
36.2924,3.15,6.03,0.068
36.303005,2.8,6.062,0.287
36.31361,2.94,5.981,0.344
36.324215,3.08,6.062,0.287
36.33482,3.43,5.807,0.526
36.345425,3.85,5.997,1.058
36.35603,3.5,5.86,1.033
36.366635,3.85,5.697,1.147
36.37724,3.5,5.856,1.459
36.387895,3.43,4.955,1.727
36.39855,3.36,4.988,1.946
36.409205,3.36,4.25,2.1
36.41986,3.5,4.169,2.157
36.430515,3.85,3.873,1.82
36.44117,4.55,3.747,1.727
36.451825,4.9,3.52,1.403
36.46248,5.04,3.143,1.123
36.473135,5.67,3.191,0.847
36.48379,5.81,3.228,0.64
36.494445,6.02,3.443,-0.175
36.5051,5.67,3.228,-0.568
36.515755,5.18,2.842,-1.205
36.526453,4.97,3.305,-1.408
36.537151,4.97,3.272,-1.627
36.547849,4.34,3.005,-1.318
36.558547,3.92,3.094,-1.018
36.569245,3.64,3.609,-0.714
36.579943,3.57,3.378,-0.613
36.590641,3.43,3.341,-0.406
36.601339,3.01,3.455,-0.244
36.612037,2.59,3.037,0.109
36.622735,2.73,3.528,0.551
36.633433,2.94,3.986,0.774
36.644131,3.08,4.347,0.34
36.654824,3.36,4.529,0.514
36.665517,3.64,4.736,0.551
36.67621,4.34,5.288,0.648
36.686903,4.55,5.495,0.685
36.697596,4.9,5.908,0.757
36.708289,5.18,6.139,0.656
36.718982,5.81,6.967,0.802
36.729675,5.95,7.611,0.773
36.740368,6.23,7.903,0.327
36.751061,6.23,8.207,-0.188
36.761754,6.65,8.528,0.011
36.772447,7.07,8.791,0.129
36.78314,7.56,8.617,0.311
36.793827,7.56,9.529,-0.026
36.804514,8.19,9.586,0.055
36.815201,8.54,9.525,0.4
36.825888,8.54,9.675,0.355
36.836575,8.12,10.0,0.128
36.847262,7.91,9.854,-0.253
36.857949,8.05,9.776,-0.622
36.868636,7.84,10.052,-0.573
36.879323,7.77,9.695,-0.565
36.89001,7.7,9.476,-0.533
36.900697,7.63,9.375,-0.764
36.911384,7.07,9.156,-0.731
36.922071,6.79,8.949,-0.768
36.932758,6.79,8.629,-0.966
36.943416,6.65,8.175,-0.407
36.954074,6.44,7.7,-0.135
36.964732,6.51,7.826,-0.042
36.97539,6.58,7.757,-0.054
36.986048,6.16,7.376,0.092
36.996706,6.09,6.885,-0.35
37.007364,5.95,6.76,-0.443
37.018022,5.74,6.573,-0.192
37.02868,5.6,6.054,-0.07
37.039338,5.53,5.64,-0.143
37.049996,4.97,4.943,-0.621
37.060659,4.55,4.525,-0.268
37.071322,4.76,3.889,0.117
37.081985,4.9,3.889,0.117
37.092648,4.27,3.337,0.02
37.103311,3.71,2.879,-0.203
37.113974,4.06,2.591,-0.183
37.124637,3.5,2.636,-0.033
37.1353,3.15,2.072,-0.061
37.145963,3.15,1.865,-0.098
37.156626,2.66,1.419,-0.389
37.167289,2.59,1.139,-0.012
37.177952,2.38,1.103,0.194
37.188591,2.03,0.702,0.053
37.19923,1.75,0.62,0.109
37.209869,1.54,0.276,0.049
37.220508,1.75,0.26,0.543
37.231147,1.75,0.097,0.657
37.241786,1.61,-0.251,1.022
37.252425,1.96,-0.807,1.35
37.263064,1.89,-0.819,1.419
37.273703,1.82,-0.855,1.626
37.284342,1.82,-1.468,1.874
37.294981,1.89,-1.756,1.894
37.30562,1.68,-1.873,2.158
37.316259,1.82,-1.423,2.024
37.326867,2.31,-1.845,1.594
37.337475,2.17,-1.962,1.857
37.348083,1.54,-1.48,1.943
37.358691,1.47,-1.849,2.02
37.369299,1.61,-1.468,1.874
37.379907,1.61,-1.593,1.78
37.390515,1.4,-1.723,2.113
37.401123,1.26,-1.735,2.182
37.411731,1.4,-1.76,2.32
37.422339,1.4,-1.695,2.758
37.432947,1.26,-1.995,2.847
37.443555,1.12,-1.877,2.583
37.454163,1.33,-2.096,2.616
37.464726,0.91,-2.222,2.523
37.475289,0.98,-2.315,2.648
37.485852,1.54,-2.283,2.867
37.496415,1.47,-2.57,2.888
37.506978,1.89,-3.11,2.721
37.517541,1.89,-3.029,2.665
37.528104,2.38,-2.923,2.47
37.538667,2.17,-2.404,2.348
37.54923,2.1,-2.368,2.141
37.559793,2.1,-2.072,1.27
37.570356,2.1,-1.991,1.213
37.580919,2.1,-1.877,1.375
37.591482,1.54,-1.63,1.987
37.602007,1.26,-1.358,2.462
37.612532,1.26,-1.172,2.21
37.623057,1.19,-1.253,2.267
37.633582,0.56,-1.103,2.222
37.644107,0.35,-1.115,2.291
37.654632,0.63,-0.965,2.247
37.665157,0.49,-1.09,2.153
37.675682,0.21,-1.687,1.906
37.686207,0.28,-1.95,1.789
37.696732,0.35,-2.181,1.89
37.707257,0.42,-1.812,1.813
37.717782,0.77,-1.752,1.468
37.728249,0.42,-1.983,1.57
37.738716,0.49,-1.922,1.225
37.749183,0.77,-1.816,1.03
37.75965,0.77,-1.342,0.758
37.770117,0.42,-1.172,1.002
37.780584,0.63,-1.225,0.495
37.791051,0.98,-0.973,0.681
37.801518,0.98,-0.519,1.33
37.811985,1.33,-0.742,1.788
37.822452,1.75,-0.673,1.801
37.832919,2.17,-0.555,1.537
37.843386,2.31,0.126,1.302
37.853853,2.38,0.243,1.038
37.8643,2.66,0.373,0.706
37.874747,2.73,0.88,0.653
37.885194,3.29,0.653,0.328
37.895641,3.43,0.835,0.503
37.906088,3.36,0.819,0.997
37.916535,3.43,0.864,1.147
37.926982,3.92,1.464,0.969
37.937429,4.41,2.352,0.77
37.947876,5.39,3.232,0.214
37.958323,6.51,4.558,-0.049
37.96877,7.84,6.188,0.38
37.979217,8.68,8.941,0.084
37.989639,9.94,13.312,-0.922
38.000061,11.48,18.612,-3.968
38.010483,13.23,25.444,-8.45
38.020905,15.47,33.091,-13.925
38.031327,17.43,41.35,-19.648
38.041749,19.46,49.086,-24.823
38.052171,21.35,56.636,-28.539
38.062593,22.47,63.371,-31.261
38.073015,23.52,69.08,-33.808
38.083437,25.13,74.234,-36.027
38.093859,26.32,79.294,-38.12
38.104281,27.79,83.746,-40.391
38.114703,28.91,87.424,-42.302
38.125111,29.68,90.444,-44.115
38.135519,30.8,91.628,-45.185
38.145927,31.78,91.997,-45.262
38.156335,32.76,91.024,-44.581
38.166743,34.3,89.35,-43.952
38.177151,35.56,86.519,-44.025
38.187559,36.82,83.283,-43.814
38.197967,38.01,79.97,-43.971
38.208375,39.27,76.544,-44.291
38.218783,40.39,72.785,-44.741
38.229191,42.0,68.965,-46.054
38.239599,43.4,65.51,-47.019
38.249985,45.22,62.42,-47.635
38.260371,47.46,58.856,-47.979
38.270757,49.42,55.648,-48.331
38.281143,51.24,52.72,-49.061
38.291529,52.22,50.007,-50.605
38.301915,52.36,47.092,-51.404
38.312301,51.45,44.168,-51.35
38.322687,49.35,41.678,-50.936
38.333073,47.04,38.832,-49.306
38.343459,43.75,36.192,-46.431
38.353845,40.46,34.105,-43.458
38.364231,36.89,32.463,-40.194
38.374617,32.97,31.604,-36.933
38.384991,30.17,30.355,-32.675
38.395365,27.86,29.2,-28.543
38.405739,25.62,28.276,-24.512
38.416113,23.45,27.097,-21.451
38.426487,21.98,25.564,-18.807
38.436861,20.86,24.036,-16.588
38.447235,20.3,22.718,-14.759
38.457609,20.02,20.987,-13.003
38.467983,19.74,18.696,-11.701
38.478357,19.39,16.762,-10.407
38.488731,19.67,14.674,-9.852
38.499105,19.46,12.066,-9.174
38.509479,18.48,9.264,-8.602
38.519853,16.52,6.081,-7.884
38.530248,14.35,2.797,-6.188
38.540643,11.9,-0.199,-4.513
38.551038,9.73,-3.228,-3.057
38.561433,8.47,-5.811,-1.309
38.571828,7.35,-7.498,0.597
38.582223,6.65,-8.99,2.609
38.592618,6.72,-10.396,4.138
38.603013,6.51,-11.455,5.301
38.613408,6.79,-11.88,6.506
38.623803,6.72,-11.973,7.84
38.634198,6.44,-11.985,9.117
38.644587,6.65,-12.257,9.851
38.654976,6.93,-12.362,10.046
38.665365,7.14,-12.297,10.484
38.675754,7.49,-12.439,10.885
38.686143,7.84,-13.124,11.546
38.696532,8.4,-13.343,11.579
38.706921,8.33,-14.175,11.859
38.71731,8.61,-15.225,10.963
38.727699,9.17,-15.14,10.48
38.738088,9.87,-15.655,10.176
38.748477,10.57,-15.878,9.426
38.758866,11.83,-15.233,8.189
38.769255,12.67,-14.99,6.81
38.779679,13.58,-14.407,5.918
38.790103,14.35,-13.762,4.681
38.800527,15.19,-13.393,3.396
38.810951,15.54,-13.604,2.577
38.821375,15.19,-13.937,2.447
38.831799,15.33,-13.989,3.149
38.842223,15.89,-14.411,3.927
38.852647,16.03,-14.362,4.86
38.863071,16.52,-14.472,5.48
38.873495,17.43,-14.536,6.251
38.883919,18.2,-14.487,7.183
38.894343,19.32,-13.851,8.006
38.904767,20.37,-13.652,8.894
38.915218,21.21,-13.344,9.162
38.925669,21.77,-12.61,9.434
38.93612,21.56,-11.3,9.665
38.946571,21.84,-10.302,10.054
38.957022,21.77,-9.382,10.074
38.967473,20.93,-8.405,10.175
38.977924,20.3,-7.902,10.548
38.988375,20.37,-7.602,10.459
38.998826,20.23,-7.083,10.337
39.009277,19.53,-6.681,10.479
39.019728,19.04,-6.369,10.321
39.030179,18.41,-6.251,10.057
39.04063,17.78,-5.968,9.254
39.051087,16.8,-5.364,8.65
39.061544,16.1,-4.853,8.171
39.072001,15.54,-4.127,8.086
39.082458,14.77,-3.871,7.847
39.092915,14.28,-3.608,7.965
39.103372,13.86,-3.584,7.827
39.113829,13.51,-3.17,7.9
39.124286,12.88,-3.215,7.75
39.134743,12.25,-3.215,7.75
39.1452,11.69,-3.251,7.956
39.155657,11.27,-3.093,7.06
39.166114,10.57,-3.231,7.036
39.176571,9.87,-3.486,7.275
39.187073,8.89,-3.219,6.967
39.197575,8.47,-3.701,6.882
39.208077,7.91,-4.07,6.959
39.218579,7.21,-4.67,7.137
39.229081,6.86,-4.451,7.105
39.239583,6.16,-5.125,6.489
39.250085,5.25,-5.413,6.509
39.260587,4.69,-5.238,6.327
39.271089,4.27,-4.995,6.156
39.281591,4.06,-5.015,5.868
39.292093,3.78,-4.942,5.455
39.302595,3.5,-4.411,5.264
39.3131,3.64,-4.423,5.333
39.323605,3.5,-3.989,5.694
39.33411,3.71,-3.701,5.673
39.344615,3.5,-3.414,5.653
39.35512,3.64,-3.182,5.552
39.365625,3.29,-3.032,5.507
39.37613,3.43,-3.272,5.252
39.386635,3.36,-3.191,5.195
39.39714,3.08,-3.434,5.365
39.407645,3.36,-2.599,4.66
39.41815,3.5,-2.53,4.672
39.428655,3.22,-2.647,4.935
39.43916,3.15,-2.639,5.292
39.449699,2.8,-1.938,5.345
39.460238,2.73,-2.201,5.227
39.470777,3.15,-1.775,5.231
39.481316,2.66,-1.743,5.45
39.491855,2.38,-2.169,5.446
39.502394,2.38,-2.217,5.722
39.512933,2.17,-2.424,5.685
39.523472,1.96,-2.311,5.848
39.534011,1.89,-2.311,5.848
39.54455,1.4,-2.156,6.586
39.555089,1.4,-2.148,6.942
39.565628,1.4,-2.002,7.324
39.576162,1.61,-2.116,7.161
39.586696,1.68,-1.933,7.336
39.59723,1.19,-1.966,7.117
39.607764,0.91,-1.909,7.198
39.618298,-0.07,-2.185,7.149
39.628832,-0.7,-2.241,7.068
39.639366,-1.19,-2.517,7.02
39.6499,-2.24,-3.182,6.76
39.660434,-3.43,-3.807,7.076
39.670968,-5.18,-4.386,7.543
39.681502,-7.49,-5.185,8.042
39.692036,-10.22,-6.491,8.593
39.70257,-13.3,-7.626,9.388
39.713131,-17.08,-8.96,10.504
39.723692,-22.68,-10.456,11.733
39.734253,-28.98,-11.977,13.099
39.744814,-35.21,-13.323,14.284
39.755375,-40.88,-14.916,14.856
39.765936,-44.38,-16.031,14.73
39.776497,-46.9,-16.834,14.446
39.787058,-48.93,-17.434,14.625
39.797619,-50.96,-17.978,14.884
39.80818,-51.94,-17.69,14.864
39.818741,-51.87,-17.702,14.933
39.829302,-51.31,-17.114,14.823
39.839863,-49.77,-16.25,14.762
39.850419,-47.81,-15.35,14.495
39.860975,-45.43,-14.296,13.757
39.871531,-43.05,-13.29,13.294
39.882087,-40.67,-12.232,13.339
39.892643,-38.85,-11.356,13.209
39.903199,-37.52,-10.61,13.411
39.913755,-35.7,-9.986,13.095
39.924311,-34.44,-9.049,12.62
39.934867,-33.39,-8.725,12.393
39.945423,-32.69,-8.011,12.377
39.955979,-31.92,-7.549,12.174
39.966535,-30.38,-7.342,12.211
39.977108,-29.05,-7.119,11.752
39.987681,-27.51,-6.953,11.213
39.998254,-26.11,-6.487,10.584
40.008827,-24.78,-6.057,10.163
40.0194,-23.66,-5.854,9.417
40.029973,-22.12,-5.449,9.133
40.040546,-21.28,-5.165,8.33
40.051119,-20.23,-5.043,7.64
40.061692,-18.97,-4.536,7.588
40.072265,-17.99,-4.362,7.405
40.082838,-17.29,-4.557,7.3
40.093411,-16.24,-4.269,7.279
40.103965,-14.98,-4.127,6.878
40.114519,-13.51,-3.527,6.699
40.125073,-12.18,-3.166,6.265
40.135627,-11.2,-2.586,5.799
40.146181,-10.08,-1.925,5.276
40.156735,-9.17,-1.402,4.728
40.167289,-8.19,-0.997,4.444
40.177843,-7.56,-0.429,4.047
40.188397,-7.0,0.195,3.731
40.198951,-6.23,0.463,3.422
40.209505,-5.25,1.225,3.13
40.220059,-4.06,1.322,2.579
40.230613,-3.57,2.15,2.725
40.24116,-3.08,2.693,2.465
40.251707,-2.17,3.224,2.274
40.262254,-1.68,3.629,1.99
40.272801,-1.12,4.518,1.792
40.283348,-0.56,4.392,1.698
40.293895,0.14,5.361,1.443
40.304442,0.91,5.843,1.528
40.314989,1.61,6.038,1.633
40.325536,2.59,5.819,1.666
40.336083,3.99,5.576,1.836
40.34663,5.53,5.949,1.333
40.357177,7.42,6.216,1.025
40.367724,9.17,6.735,0.903
40.378278,11.13,7.186,0.769
40.388832,13.23,6.772,0.697
40.399386,15.05,6.614,0.384
40.40994,16.73,6.719,0.19
40.420494,18.2,6.573,-0.192
40.431048,19.74,6.366,-0.228
40.441602,20.65,6.111,0.011
40.452156,21.91,5.697,-0.062
40.46271,22.4,5.365,-0.191
40.473264,22.96,5.024,-0.678
40.483818,23.45,4.943,-0.621
40.494372,23.8,5.048,-0.816
40.504905,24.01,4.866,-0.99
40.515438,23.59,5.065,-1.31
40.525971,23.1,5.283,-1.343
40.536504,22.54,4.886,-1.911
40.547037,22.47,4.854,-2.13
40.55757,22.4,4.602,-2.316
40.568103,22.05,4.314,-2.296
40.578636,22.33,4.197,-2.032
40.589169,22.4,3.633,-2.06
40.599702,22.47,3.382,-2.247
40.610235,22.61,3.499,-2.511
40.620768,22.68,3.382,-2.247
40.631301,22.89,3.645,-2.129
40.641846,23.45,4.047,-1.988
40.652391,23.24,4.002,-2.138
40.662936,23.1,3.953,-1.862
40.673481,22.96,4.331,-1.582
40.684026,22.54,4.132,-1.262
40.694571,21.84,4.006,-1.355
40.705116,20.93,4.217,-1.744
40.715661,19.88,4.355,-1.72
40.726206,18.97,4.481,-1.627
40.736751,18.06,4.262,-1.594
40.747296,17.43,4.225,-1.387
40.757841,16.38,3.876,-1.022
40.768386,15.47,3.52,-1.014
40.778938,14.84,3.151,-0.937
40.78949,14.0,2.851,-0.848
40.800042,13.44,2.514,-0.552
40.810594,13.02,1.865,-0.098
40.821146,12.32,1.127,0.057
40.831698,11.83,1.05,-0.312
40.84225,11.55,0.884,-0.981
40.852802,10.99,0.92,-1.188
40.863354,10.5,0.795,-1.281
40.873906,9.87,0.6,-1.387
40.884458,10.08,0.434,-0.848
40.89501,10.01,0.454,-0.56
40.905539,9.59,-0.065,-0.438
40.916068,9.73,-0.377,-0.28
40.926597,9.31,-0.551,-0.097
40.937126,8.75,-0.645,0.028
40.947655,7.91,-0.762,0.292
40.958184,7.35,-0.799,0.499
40.968713,6.72,-0.673,0.592
40.979242,6.79,-1.006,0.462
40.989771,6.37,-0.661,0.523
41.0003,5.74,-0.641,0.811
41.010829,5.11,-0.791,0.856
41.021358,4.55,-1.014,1.314
41.031887,4.06,-0.669,1.375
41.042387,3.64,-1.301,1.334
41.052887,3.08,-0.9,1.476
41.063387,2.52,-0.762,1.5
41.073887,2.17,-1.212,1.634
41.084387,2.03,-1.135,2.003
41.094887,2.03,-1.435,2.093
41.105387,2.17,-1.192,1.922
41.115887,1.82,-1.086,1.728
41.126387,1.61,-1.123,1.934
41.136887,1.54,-1.285,2.048
41.147387,1.61,-1.135,2.003
41.157887,1.47,-1.022,2.166
41.168387,1.68,-1.196,2.348
41.178887,2.1,-1.018,1.74
41.189356,2.17,-0.985,1.959
41.199825,1.96,-1.435,2.093
41.210294,1.54,-0.916,1.971
41.220763,1.68,-0.778,1.995
41.231232,1.61,-1.042,1.878
41.241701,1.61,-0.981,1.533
41.25217,1.26,-0.936,1.683
41.262639,1.19,-1.119,1.509
41.273108,1.54,-1.188,1.496
41.283577,1.47,-0.888,1.407
41.294046,1.75,-0.799,1.707
41.304508,1.61,-0.43,1.63
41.31497,1.68,-0.267,1.517
41.325432,1.89,-0.588,1.318
41.335894,1.89,-0.588,1.318
41.346356,1.96,-0.612,1.456
41.356818,1.68,-0.73,1.719
41.36728,1.61,-0.543,1.468
41.377742,1.68,-0.438,1.273
41.388204,1.54,-0.47,1.054
41.398666,1.54,-0.645,1.237
41.409128,1.26,-0.47,1.054
41.41959,1.05,-0.515,0.904
41.430052,1.4,-0.349,0.365
41.440514,0.98,-0.373,0.503
41.450977,0.77,0.065,0.438
41.46144,0.84,-0.349,0.365
41.471903,1.05,-0.491,0.766
41.482366,1.33,-0.409,0.71
41.492829,1.68,-0.272,0.734
41.503292,0.98,-0.381,1.354
41.513755,1.26,-0.527,0.973
41.524218,1.33,-0.215,0.815
41.534681,1.26,-0.19,0.677
41.545144,1.12,-0.345,1.148
41.555607,1.12,-0.612,1.456
41.56607,1.4,-0.73,1.719
41.576533,1.75,-1.086,1.728
41.587001,1.68,-1.005,1.671
41.597469,1.61,-1.155,1.715
41.607937,1.96,-0.851,1.2
41.618405,2.1,-1.026,1.383
41.628873,2.1,-0.851,1.2
41.639341,2.24,-0.953,0.969
41.649809,1.82,-0.86,0.844
41.660277,1.4,-0.953,0.969
41.670745,1.61,-0.746,1.006
41.681213,1.26,-0.482,1.123
41.691681,1.12,-0.288,1.229
41.702149,0.91,-0.276,1.16
41.712592,0.7,-0.3,1.298
41.723035,0.35,0.162,1.095
41.733478,0.28,0.057,1.289
41.743921,0.42,0.0,1.208
41.754364,0.49,0.012,1.139
41.764807,0.63,-0.276,1.16
41.77525,0.63,-0.162,1.322
41.785693,1.12,-0.235,1.736
41.796136,1.47,-0.34,1.93
41.806579,1.61,-0.661,1.732
41.817022,1.33,-0.649,1.663
41.827465,1.82,-0.207,1.172
41.837908,2.1,-0.442,0.491
41.848352,2.24,-0.819,0.211
41.858796,2.24,-0.523,0.547
41.86924,2.24,-0.791,0.856
41.879684,2.52,-1.204,0.783
41.890128,2.38,-1.439,1.31
41.900572,2.52,-1.233,1.346
41.911016,2.8,-1.014,1.314
41.92146,2.73,-0.851,1.2
41.931904,2.8,-0.839,1.131
41.942348,2.59,-0.977,1.107
41.952792,2.38,-0.653,0.88
41.963236,2.31,-0.653,0.88
41.973703,2.17,-0.928,0.831
41.98417,2.03,-1.139,1.221
41.994637,2.03,-0.795,1.281
42.005104,1.68,-0.876,1.338
42.015571,1.33,-0.738,1.363
42.026038,1.54,-0.669,1.375
42.036505,1.61,-0.77,1.144
42.046972,1.47,-0.876,1.338
42.057439,1.26,-0.632,1.168
42.067906,1.26,-0.669,1.375
42.078373,0.98,-0.843,1.557
42.08884,1.12,-0.681,1.444
42.099307,1.54,-0.612,1.456
42.109807,1.12,-0.543,1.468
42.120307,1.12,-0.75,1.432
42.130807,0.84,-0.636,1.594
42.141307,0.7,-0.669,1.375
42.151807,0.84,-0.888,1.407
42.162307,0.77,-0.807,1.35
42.172807,0.7,-0.795,1.281
42.183307,0.91,-0.519,1.33
42.193807,0.7,-0.588,1.318
42.204307,1.26,-0.714,1.225
42.214807,1.12,-0.572,0.823
42.225307,1.4,-0.365,0.86
42.235806,1.4,-0.263,1.091
42.246305,1.68,0.033,1.427
42.256804,1.68,-0.174,1.391
42.267303,1.75,-0.645,1.237
42.277802,1.75,-0.576,1.249
42.288301,1.75,-0.669,1.375
42.2988,1.61,-0.876,1.338
42.309299,1.68,-0.657,1.306
42.319798,1.47,-0.474,1.48
42.330297,1.54,-0.499,1.618
42.340796,1.89,-0.636,1.594
42.351295,2.03,-0.543,1.468
42.361794,1.96,-0.738,1.363
42.37228,2.24,-1.119,1.509
42.382766,2.31,-0.969,1.464
42.393252,2.38,-0.936,1.683
42.403738,2.03,-1.395,1.46
42.414224,2.17,-1.508,1.298
42.42471,2.31,-1.139,1.221
42.435196,2.1,-1.216,0.852
42.445682,1.61,-1.034,1.026
42.456168,1.54,-1.042,0.669
42.466654,1.54,-0.697,0.73
42.47714,1.82,-0.146,0.827
42.487626,1.82,-0.158,0.896
42.498112,1.47,0.106,1.014
42.508598,1.75,-0.032,0.989
42.519093,1.33,-0.527,0.973
42.529588,1.47,-0.653,0.88
42.540083,1.4,-1.014,1.314
42.550578,1.05,-1.326,1.472
42.561073,0.91,-1.451,1.379
42.571568,1.19,-1.735,0.973
42.582063,1.19,-1.707,0.41
42.592558,1.19,-1.841,1.168
42.603053,1.33,-2.271,1.59
42.613548,1.68,-2.68,2.3
42.624043,1.54,-3.004,2.527
42.634538,1.54,-2.668,2.231
42.645033,1.89,-2.185,2.316
42.655528,2.45,-2.157,1.752
42.666043,2.8,-1.752,1.468
42.676558,2.66,-1.646,1.273
42.687073,2.24,-0.645,1.237
42.697588,2.24,-0.563,1.18
42.708103,1.89,-0.543,1.468
42.718618,1.61,-0.061,1.553
42.729133,1.47,0.077,1.577
42.739648,1.33,0.15,1.164
42.750163,0.91,0.645,1.18
42.760678,0.84,0.499,0.799
42.771193,0.35,0.316,0.624
42.781708,0.77,0.073,0.795
42.79223,0.49,-0.113,1.046
42.802752,0.7,-0.572,0.823
42.813274,0.84,-0.665,0.949
42.823796,1.19,-1.01,0.888
42.834318,1.33,-0.916,0.762
42.84484,1.61,-1.123,0.726
42.855362,1.75,-1.253,1.059
42.865884,1.89,-1.07,1.233
42.876406,1.89,-1.099,0.588
42.886928,2.03,-0.848,-0.434
42.89745,1.96,-0.568,-0.811
42.907972,1.75,-0.454,-0.649
42.918494,1.89,-0.251,-0.186
42.929026,2.38,-0.162,0.114
42.939558,2.24,0.166,0.669
42.95009,2.52,-0.065,0.77
42.960622,2.94,-0.255,0.239
42.971154,3.43,0.085,-0.483
42.981686,3.36,0.288,-0.02
42.992218,2.87,0.061,-0.345
43.00275,2.94,0.381,-0.146
43.013282,2.94,0.669,-0.166
43.023814,2.87,0.588,-0.11
43.034346,3.15,0.645,-0.028
43.044878,3.08,0.182,0.174
43.05541,2.73,0.251,0.186
43.065919,2.38,0.045,0.15
43.076428,2.24,0.191,0.531
43.086937,2.24,0.057,0.081
43.097446,2.31,-0.024,0.138
43.107955,2.17,-0.093,0.126
43.118464,2.1,-0.061,0.345
43.128973,2.38,-0.264,-0.118
43.139482,2.31,-0.393,0.215
43.149991,2.03,-0.568,0.397
43.1605,2.24,-0.799,0.499
43.171009,2.38,-0.649,0.454
43.181518,2.38,-0.73,0.511
43.192048,2.73,-1.075,0.45
43.202578,2.17,-0.981,0.325
43.213108,1.96,-0.787,0.43
43.223638,2.03,-0.88,0.556
43.234168,1.54,-0.706,0.373
43.244698,1.68,-0.981,0.325
43.255228,1.54,-0.604,0.604
43.265758,1.54,-0.718,0.442
43.276288,1.47,-0.908,-0.089
43.286818,1.12,-0.799,0.499
43.297348,1.33,-0.778,0.787
43.307878,1.47,-0.88,0.556
43.318408,1.4,-1.192,0.714
43.328938,1.4,-1.249,0.633
43.339448,1.47,-1.143,0.438
43.349958,1.05,-1.411,0.746
43.360468,0.91,-1.427,1.241
43.370978,0.84,-1.727,1.33
43.381488,0.91,-1.715,1.261
43.391998,0.84,-1.395,1.46
43.402508,0.56,-1.326,1.472
43.413018,1.12,-1.699,1.975
43.423528,1.33,-1.261,1.91
43.434038,1.47,-1.5,1.655
43.444548,1.33,-1.824,1.882
43.455068,1.47,-1.419,1.598
43.465588,1.54,-1.224,1.703
43.476108,1.68,-1.419,1.598
43.486628,1.61,-1.119,1.509
43.497148,1.12,-1.233,1.346
43.507668,1.26,-1.127,1.152
43.518188,1.12,-1.058,1.164
43.528708,1.05,-0.864,1.269
43.539228,1.12,-0.981,1.533
43.549748,0.98,-0.843,1.557
43.560268,1.19,-0.786,1.638
43.570788,1.12,-0.9,1.476
43.581285,1.4,-0.612,1.456
43.591782,1.75,-0.936,1.683
43.602279,1.4,-1.366,2.105
43.612776,1.54,-1.196,2.348
43.623273,1.61,-1.378,2.174
43.63377,1.61,-1.192,1.922
43.644267,1.82,-1.488,1.586
43.654764,1.68,-1.606,1.849
43.665261,1.4,-1.715,2.47
43.675758,1.75,-2.149,3.317
43.686255,1.89,-2.185,3.524
43.696752,1.96,-1.918,3.216
43.707249,2.03,-2.019,2.985
43.717735,1.96,-2.165,2.604
43.728221,2.03,-1.857,2.871
43.738707,1.89,-1.463,2.656
43.749193,1.47,-1.208,2.417
43.759679,1.4,-1.459,2.23
43.770165,0.91,-1.484,2.368
43.780651,0.7,-1.386,3.025
43.791137,0.42,-1.269,2.762
43.801623,0.28,-1.22,2.486
43.812109,0.28,-1.322,2.255
43.822595,0.42,-1.322,2.255
43.833081,0.14,-1.208,2.417
43.843567,-0.28,-1.289,2.474
43.854065,-0.28,-1.196,2.348
43.864563,-0.14,-1.48,1.943
43.875061,0.21,-1.76,2.32
43.885559,0.35,-1.577,2.494
43.896057,0.7,-1.67,2.62
43.906555,0.98,-1.37,2.531
43.917053,0.84,-1.634,2.413
43.927551,0.84,-1.33,1.898
43.938049,0.84,-1.05,1.521
43.948547,1.05,-1.038,1.452
43.959045,1.19,-1.05,1.521
43.969543,1.33,-1.009,2.097
43.980073,1.75,-1.309,2.186
43.990603,1.89,-1.277,2.405
44.001133,2.31,-0.851,2.409
44.011663,2.87,-1.305,1.76
44.022193,2.94,-0.932,1.257
44.032723,2.8,-0.989,1.176
44.043253,2.87,-1.277,1.196
44.053783,3.15,-0.847,0.775
44.064313,3.08,-1.042,0.669
44.074843,2.59,-1.35,0.402
44.085373,2.45,-1.249,0.633
44.095903,2.1,-0.653,0.88
44.106474,1.75,-0.803,0.925
44.117045,2.1,-0.77,1.144
44.127616,1.89,-0.795,1.281
44.138187,1.96,-0.511,1.687
44.148758,1.68,-0.43,1.63
44.159329,1.54,-0.336,1.504
44.1699,1.54,-0.77,1.144
44.180471,1.68,-0.576,1.249
44.191042,1.68,-0.592,1.744
44.201613,1.54,-0.718,1.65
44.212184,1.75,-0.531,1.399
44.222755,1.75,-0.531,1.399
44.233326,1.68,-0.864,1.269
44.243966,1.68,-0.819,1.419
44.254606,1.54,-0.762,1.5
44.265246,1.68,-0.77,1.144
44.275886,1.68,-0.608,1.03
44.286526,1.68,-0.62,1.099
44.297166,1.54,-0.47,1.054
44.307806,1.05,-0.576,1.249
44.318446,1.19,-0.693,1.513
44.329086,1.33,-0.539,1.042
44.339726,1.47,-0.345,1.148
44.350366,1.89,-0.462,1.411
44.361006,2.1,-0.576,1.249
44.371676,2.1,-0.819,1.419
44.382346,2.17,-0.843,1.557
44.393016,2.03,-0.855,1.626
44.403686,2.03,-0.868,1.695
44.414356,2.24,-0.912,1.545
44.425026,2.24,-1.05,1.521
44.435696,2.1,-1.062,1.59
44.446366,2.03,-1.074,1.659
44.457036,2.03,-1.099,1.797
44.467706,2.03,-1.443,1.736
44.478376,2.17,-1.135,2.003
44.489046,2.31,-1.476,1.517
44.499716,2.38,-1.05,1.521
44.510411,2.52,-1.155,1.715
44.521106,2.38,-1.18,1.853
44.531801,2.59,-1.143,1.646
44.542496,2.52,-1.233,1.346
44.553191,2.24,-1.553,1.148
44.563886,2.24,-1.358,1.253
44.574581,2.31,-1.346,1.184
44.585276,2.1,-1.504,0.872
44.595971,2.1,-1.293,0.483
44.606666,1.89,-1.147,0.864
44.617361,2.03,-0.941,0.9
44.628056,1.96,-0.985,0.75
44.638776,2.17,-1.354,0.827
44.649496,1.96,-1.46,1.022
44.660216,1.89,-1.391,1.034
44.670936,1.75,-1.079,0.876
44.681656,2.03,-1.395,1.46
44.692376,2.03,-1.764,1.537
44.703096,2.24,-1.451,1.379
44.713816,2.38,-1.654,0.917
44.724536,2.24,-1.322,1.046
44.735256,2.1,-1.407,1.529
44.745976,2.17,-1.52,2.575
44.756696,2.03,-1.269,2.762
44.767416,2.03,-1.65,2.908
44.778151,2.45,-1.715,2.47
44.788886,2.73,-1.622,2.344
44.799621,2.59,-1.61,2.275
44.810356,2.73,-1.788,1.675
44.821091,2.66,-1.715,1.261
44.831826,2.31,-1.35,1.61
44.842561,1.89,-1.188,1.496
44.853296,1.75,-1.074,1.659
44.864031,1.75,-1.111,1.865
44.874766,1.61,-1.066,2.015
44.885501,1.47,-0.884,2.19
44.896236,1.89,-1.042,1.878
44.906949,1.82,-0.697,1.938
44.917662,1.68,-0.94,2.109
44.928375,1.33,-1.001,2.453
44.939088,1.26,-1.516,2.149
44.949801,1.26,-1.492,2.011
44.960514,1.26,-1.76,2.32
44.971227,1.05,-1.966,2.283
44.98194,1.26,-2.137,2.04
44.992653,1.26,-1.91,2.364
45.003366,1.33,-2.003,2.49
45.014079,1.47,-1.642,2.056
45.024792,2.1,-1.33,1.898
45.035505,2.45,-1.257,1.484
45.04617,2.8,-1.533,1.436
45.056835,2.8,-1.524,1.793
45.0675,2.8,-1.524,1.793
45.078165,3.29,-1.597,2.206
45.08883,3.43,-1.22,2.486
45.099495,3.15,-1.391,2.243
45.11016,3.43,-0.949,1.752
45.120825,3.92,-1.35,1.61
45.13149,3.43,-1.674,1.837
45.142155,3.64,-1.756,1.894
45.15282,3.64,-1.926,1.651
45.163485,3.15,-2.303,1.371
45.17415,3.01,-2.522,1.403
45.184815,3.08,-2.364,1.716
45.195423,2.59,-2.043,1.914
45.206031,2.73,-2.076,1.695
45.216639,2.38,-2.181,1.89
45.227247,2.38,-1.65,1.699
45.237855,2.45,-1.581,1.711
45.248463,2.31,-1.861,2.089
45.259071,2.31,-1.975,1.926
45.269679,2.52,-1.861,2.089
45.280287,2.31,-1.63,1.987
45.290895,2.45,-1.743,1.825
45.301503,2.73,-1.873,2.158
45.312065,2.87,-1.516,2.149
45.322627,3.08,-1.468,1.874
