Time,GyroscopeX,GyroscopeY,GyroscopeZ 
-0.144017,17.36,-1.951,-1.837
-0.133557,16.87,-0.001,-3.625
-0.123097,16.66,2.084,-4.964
-0.112637,17.01,4.034,-5.544
-0.102177,17.78,5.226,-5.049
-0.091717,18.41,6.293,-4.648
-0.081257,17.85,6.751,-3.217
-0.070797,17.5,6.585,-1.469
-0.060337,17.01,6.638,0.246
-0.049877,16.17,6.334,1.97
-0.039417,14.84,5.114,3.247
-0.028957,13.02,3.962,4.537
-0.018497,10.71,2.746,5.389
-0.008022,8.33,1.615,5.758
0.002453,6.37,0.666,6.301
0.012928,4.06,-0.263,7.133
0.023403,1.89,-0.996,8.07
0.033878,0.14,-0.867,7.737
0.044353,-1.89,-0.701,5.989
0.054828,-4.06,-0.21,4.014
0.065303,-6.51,0.377,2.697
0.075778,-9.38,0.937,1.942
0.086253,-12.81,1.862,2.745
0.096728,-15.89,1.558,4.468
0.107203,-18.41,1.449,6.297
0.11767,-19.46,0.982,8.134
0.128137,-19.18,1.173,9.874
0.138604,-17.64,1.502,10.429
0.149071,-15.4,2.28,9.642
0.159538,-12.67,3.642,7.963
0.170005,-10.29,4.972,6.066
0.180472,-9.03,6.116,4.419
0.190939,-9.03,6.675,3.665
0.201406,-10.36,7.052,3.945
0.211873,-12.04,6.991,4.289
0.22234,-13.93,6.29,4.237
0.232807,-15.19,6.335,4.387
0.243274,-15.82,5.848,4.727
0.253772,-15.54,5.28,5.125
0.26427,-14.91,4.875,5.409
0.274768,-13.86,4.19,6.07
0.285266,-12.74,3.707,7.193
0.295764,-11.34,3.115,7.728
0.306262,-10.5,3.18,8.166
0.31676,-9.17,3.079,7.935
0.327258,-8.75,2.884,7.83
0.337756,-8.68,2.868,7.116
0.348254,-8.82,3.529,6.593
0.358752,-9.52,3.65,5.904
0.36925,-10.57,4.185,5.287
0.379776,-11.83,5.033,4.513
0.390302,-13.44,5.844,3.945
0.400828,-15.47,6.687,3.596
0.411354,-17.64,7.048,3.162
0.42188,-20.09,7.754,2.789
0.432406,-22.82,8.423,2.622
0.442932,-26.25,8.5,2.991
0.453458,-30.03,8.439,3.336
0.463984,-33.67,8.893,3.985
0.47451,-37.17,8.715,4.593
0.485036,-40.6,8.378,4.889
0.495562,-43.61,8.849,5.043
0.506088,-46.9,8.557,5.489
0.516608,-49.28,8.22,5.785
0.527128,-51.24,8.123,6.337
0.537648,-53.97,8.143,6.625
0.548168,-55.93,7.495,7.079
0.558688,-57.61,6.878,7.752
0.569208,-58.87,6.145,8.689
0.579728,-59.85,5.536,9.719
0.590248,-59.64,4.839,10.449
0.600768,-58.38,4.409,10.871
0.611288,-57.05,3.57,10.794
0.621808,-54.95,3.513,10.713
0.632328,-52.43,3.136,10.433
0.642848,-49.84,2.657,9.922
0.653368,-47.39,2.191,9.342
0.663912,-45.01,2.021,9.099
0.674456,-43.19,1.287,8.828
0.685,-41.51,1.242,8.678
0.695544,-39.41,0.982,8.134
0.706088,-37.31,0.621,7.36
0.716632,-35.49,0.573,6.427
0.727176,-33.46,-0.019,5.754
0.73772,-31.57,-0.36,5.267
0.748264,-29.82,-0.717,5.276
0.758808,-28.14,-0.887,5.032
0.769352,-26.67,-0.855,4.043
0.779886,-25.06,-1.249,3.05
0.79042,-23.52,-1.261,1.91
0.800954,-22.05,-1.326,1.472
0.811488,-21.07,-1.873,0.949
0.822022,-20.3,-2.299,0.945
0.832556,-19.53,-2.372,1.359
0.84309,-18.48,-2.283,1.659
0.853624,-17.43,-2.092,0.982
0.864158,-16.24,-1.95,0.58
0.874692,-15.33,-1.756,0.686
0.885226,-13.79,-1.456,0.596
0.89576,-12.6,-1.306,0.552
0.906294,-11.9,-0.734,0.937
0.916849,-11.55,-0.316,0.584
0.927404,-10.92,-0.085,0.483
0.937959,-11.13,-0.085,0.483
0.948514,-10.29,0.097,0.657
0.959069,-9.24,0.377,0.28
0.969624,-8.26,-0.114,-0.162
0.980179,-6.79,-0.215,-0.393
0.990734,-5.18,-0.146,-0.381
1.001289,-3.85,-0.466,-0.58
1.011844,-2.87,-0.742,-0.628
1.022399,-2.38,-1.213,-0.782
1.032954,-1.96,-1.488,-0.831
1.043496,-1.75,-1.744,-0.592
1.054038,-1.4,-2.121,-0.872
1.06458,-1.19,-2.072,-1.147
1.075122,-1.12,-2.368,-1.484
1.085664,-1.05,-2.729,-1.05
1.096206,-1.05,-2.794,-1.488
1.106748,-0.84,-3.123,-2.043
1.11729,-0.42,-3.038,-2.526
1.127832,-0.21,-2.928,-3.146
1.138374,0.21,-3.111,-3.321
1.148916,1.12,-3.2,-3.621
1.159458,2.17,-3.09,-3.033
1.17,2.94,-3.784,-2.728
1.180542,3.15,-3.901,-2.465
1.191075,3.78,-4.319,-2.112
1.201608,4.13,-3.946,-1.407
1.212141,4.69,-3.763,-1.232
1.222674,4.9,-3.796,-1.451
1.233207,5.11,-3.252,-1.711
1.24374,5.11,-2.445,-1.853
1.254273,4.9,-2.527,-1.796
1.264806,4.83,-2.271,-2.035
1.275339,5.46,-1.691,-1.293
1.285872,5.6,-1.857,-0.754
1.296405,6.37,-1.342,-0.45
1.306938,6.86,-0.758,-0.134
1.317441,7.07,0.126,0.093
1.327944,7.21,0.199,-0.32
1.338447,7.07,0.543,-0.26
1.34895,6.93,1.111,-0.657
1.359453,6.72,1.273,-0.771
1.369956,6.58,1.135,-0.795
1.380459,5.39,0.953,-0.969
1.390962,4.55,0.77,-1.144
1.401465,3.5,0.588,-1.318
1.411968,2.24,0.085,-1.691
1.422471,1.54,-0.167,-1.877
1.432974,1.12,-0.519,-2.295
1.443477,1.19,-1.006,-1.954
1.453973,1.26,-0.629,-1.675
1.464469,1.47,-0.945,-2.299
1.474965,2.03,-1.055,-2.887
1.485461,1.75,-0.28,-3.248
1.495957,2.03,-0.017,-3.13
1.506453,1.96,-0.13,-3.293
1.516949,1.89,0.202,-3.163
1.527445,1.61,0.316,-3.001
1.537941,1.75,0.198,-2.737
1.548437,1.68,0.251,-2.23
1.558933,1.61,0.065,-1.979
1.569429,1.61,0.117,-1.472
1.579925,1.75,-0.239,-1.464
1.590385,2.1,-0.126,-1.302
1.600845,2.24,-0.284,-1.614
1.611305,2.66,-0.564,-1.237
1.621765,2.8,-1.35,-0.807
1.632225,3.08,-1.659,-1.074
1.642685,3.15,-1.594,-0.636
1.653145,2.8,-2.04,0.28
1.663605,3.01,-2.413,0.783
1.674065,3.36,-2.749,1.079
1.684525,3.43,-2.992,1.249
1.694985,3.78,-2.871,1.768
1.705445,3.85,-2.745,1.862
1.715902,4.06,-2.802,1.781
1.726359,4.41,-2.477,1.553
1.736816,4.27,-2.283,1.659
1.747273,3.92,-2.076,1.695
1.75773,3.99,-2.307,1.797
1.768187,3.99,-2.137,2.04
1.778644,3.92,-1.906,1.939
1.789101,3.22,-1.792,2.101
1.799558,3.22,-1.662,1.768
1.810015,3.01,-1.626,1.561
1.820472,2.45,-1.776,1.606
1.830929,1.96,-1.249,1.841
1.841367,1.54,-0.823,1.845
1.851805,1.26,-0.985,1.959
1.862243,0.84,-1.139,2.429
1.872681,0.42,-1.22,2.486
1.883119,0.14,-1.52,2.575
1.893557,0.07,-1.196,2.348
1.903995,0.21,-1.561,1.999
1.914433,0.07,-1.423,2.024
1.924871,-0.14,-1.808,2.595
1.935309,-0.07,-1.796,2.527
1.945747,0.0,-1.926,2.859
1.956185,0.35,-2.145,2.892
1.966623,0.98,-2.481,3.188
1.977061,1.61,-2.554,3.601
1.987499,1.4,-2.469,3.119
1.997937,0.7,-2.384,2.636
2.008398,0.35,-1.91,2.364
2.018859,-0.35,-1.455,1.805
2.02932,-0.77,-0.442,1.699
2.039781,-1.75,0.54,1.375
2.050242,-3.29,1.168,0.632
2.060703,-4.48,2.129,0.02
2.071164,-6.02,2.871,-0.56
2.081625,-8.05,3.499,-1.302
2.092086,-9.66,3.771,-2.036
2.102547,-11.27,3.949,-2.644
2.11303,-12.81,3.994,-3.703
2.123513,-14.0,3.88,-5.073
2.133996,-14.56,3.604,-6.33
2.144479,-15.05,3.211,-7.324
2.154962,-14.91,2.683,-8.767
2.165445,-14.21,1.88,-10.259
2.175928,-12.53,1.653,-11.792
2.186411,-9.94,0.918,-14.481
2.196894,-7.0,-0.169,-16.378
2.207377,-4.13,-0.732,-17.615
2.21786,-2.45,-1.325,-19.496
2.228343,-1.05,-1.726,-22.055
2.238826,-0.77,-2.262,-25.064
2.249326,-0.28,-2.53,-28.381
2.259826,0.21,-2.721,-31.328
2.270326,1.05,-2.117,-33.141
2.280826,3.22,-1.173,-35.676
2.291326,4.9,-0.074,-38.681
2.301826,6.72,1.495,-41.531
2.312326,8.33,3.291,-44.058
2.322826,10.01,5.435,-45.741
2.333326,10.85,6.542,-47.181
2.343826,10.71,7.771,-48.101
2.354326,10.22,8.533,-48.393
2.364826,9.31,9.283,-48.617
2.37534,8.61,9.62,-48.913
2.385854,7.91,9.77,-48.957
2.396368,7.21,8.987,-47.745
2.406882,7.0,7.949,-46.293
2.417396,6.79,6.96,-43.908
2.42791,6.65,5.363,-41.702
2.438424,6.37,3.968,-40.242
2.448938,5.6,2.89,-38.158
2.459452,4.2,1.374,-36.009
2.469966,2.24,-0.082,-32.995
2.48048,-0.35,-1.752,-30.376
2.490994,-3.5,-3.106,-28.34
2.501508,-7.56,-5.012,-26.401
2.512026,-12.46,-7.387,-23.408
2.522544,3.22,-13.722,-27.795
2.533062,-17.01,-29.584,-47.082
2.54358,-30.87,-25.313,-39.861
2.554098,-28.63,-19.093,-12.252
2.564616,-27.44,-18.051,10.464
2.575134,-31.5,-17.934,11.409
2.585652,-24.85,-16.15,5.326
2.59617,-16.38,-17.948,-4.231
2.606688,-18.48,-25.65,-14.972
2.617206,-14.56,-18.987,-13.655
2.627724,-12.04,-17.36,-4.34
2.638242,-7.35,-14.095,3.343
2.648775,-6.16,-8.75,5.281
2.659308,-4.06,-7.242,1.566
2.669841,-1.47,-5.154,-2.615
2.680374,0.28,-0.434,-0.361
2.690907,0.63,0.633,3.666
2.70144,1.61,1.772,2.445
2.711973,2.24,2.032,2.988
2.722506,1.89,1.951,4.253
2.733039,1.89,2.916,5.632
2.743572,0.49,2.803,6.678
2.754105,0.21,1.432,6.792
2.764638,-1.05,-0.007,6.893
2.7752,-0.77,-1.252,8.309
2.785762,-0.98,-2.983,8.857
2.796324,-0.63,-4.046,8.029
2.806886,-1.68,-4.926,7.377
2.817448,-2.24,-6.28,6.996
2.82801,-2.8,-7.549,7.341
2.838572,-2.24,-8.741,8.054
2.849134,-1.82,-9.593,9.255
2.859696,-0.91,-10.262,10.63
2.870258,-0.56,-9.929,11.968
2.88082,-0.56,-9.88,12.9
2.891382,-0.7,-8.931,13.565
2.901944,-1.54,-7.305,14.421
2.912506,-3.36,-5.241,15.211
2.923145,-4.83,-3.355,15.401
2.933784,-6.51,-1.336,14.833
2.944423,-7.28,0.067,14.939
2.955062,-7.91,1.79,15.242
2.965701,-8.12,3.627,15.709
2.97634,-8.4,4.974,15.733
2.986979,-8.19,6.02,15.846
2.997618,-7.49,6.705,16.393
3.008257,-6.93,7.001,16.73
3.018896,-6.51,7.265,16.847
3.029573,-6.51,8.084,16.637
3.04025,-6.72,8.477,16.422
3.050927,-7.56,8.595,16.158
3.061604,-7.91,9.057,15.955
3.072281,-8.75,8.388,14.913
3.082958,-9.03,6.587,13.032
3.093635,-10.22,3.919,11.637
3.104312,-11.06,0.338,10.579
3.114989,-11.34,-3.587,10.669
3.125666,-11.13,-7.143,10.682
3.136343,-10.85,-9.406,11.42
3.14702,-9.8,-11.06,12.337
3.157697,-10.08,-11.81,13.768
3.168409,-10.99,-12.625,14.762
3.179121,-10.85,-12.933,14.494
3.189833,-10.01,-12.893,13.862
3.200545,-10.01,-12.654,14.117
3.211257,-10.5,-12.921,14.425
3.221969,-11.13,-13.177,13.456
3.232681,-11.55,-13.822,13.485
3.243393,-12.25,-14.344,15.241
3.254105,-12.46,-14.62,17.609
3.264817,-12.46,-14.989,18.894
3.275529,-12.04,-14.482,18.842
3.286241,-11.55,-13.484,18.022
3.296944,-10.99,-12.483,16.777
3.307647,-10.5,-11.129,15.95
3.31835,-9.66,-10.269,15.106
3.329053,-8.82,-9.823,15.398
3.339756,-8.12,-9.77,15.905
3.350459,-6.93,-9.519,16.092
3.361162,-6.02,-9.332,15.84
3.371865,-5.11,-8.44,15.216
3.382568,-4.34,-7.727,13.991
3.393271,-4.2,-6.871,12.365
3.403974,-4.27,-6.32,11.253
3.414677,-4.48,-5.542,10.467
3.42538,-4.83,-5.222,9.457
3.436056,-4.83,-5.124,8.905
3.446732,-4.62,-4.897,8.021
3.457408,-4.41,-4.788,7.401
3.468084,-3.64,-4.804,6.687
3.47876,-2.59,-4.452,5.897
3.489436,-1.33,-4.634,5.722
3.500112,0.49,-4.861,5.398
3.510788,2.45,-5.275,5.325
3.521464,4.2,-5.579,4.632
3.53214,6.51,-5.725,4.25
3.542816,9.73,-6.22,4.234
3.553492,12.04,-6.447,3.91
3.564168,14.0,-6.556,3.322
3.574807,16.24,-6.731,2.296
3.585446,17.64,-6.232,1.886
3.596085,18.62,-5.961,1.152
3.606724,19.25,-5.73,1.051
3.617363,18.69,-5.259,1.205
3.628002,17.22,-4.606,1.533
3.638641,15.61,-4.059,2.056
3.64928,12.95,-2.887,2.263
3.659919,10.29,-1.861,2.089
3.670558,7.42,-0.847,1.983
3.681197,4.55,-0.158,2.105
3.691836,1.19,0.714,2.4
3.702459,-1.54,1.922,2.4
3.713082,-3.78,2.997,1.95
3.723705,-5.81,3.674,2.141
3.734328,-7.35,4.076,2.282
3.744951,-8.33,5.45,2.951
3.755574,-8.82,6.707,3.884
3.766197,-9.52,7.778,5.068
3.77682,-9.59,9.299,6.118
3.787443,-9.24,10.937,6.904
3.798066,-8.19,12.803,8.015
3.808689,-7.63,14.595,8.331
3.819312,-6.79,16.501,8.809
3.829915,-6.23,18.431,9.15
3.840518,-5.81,20.017,9.429
3.851121,-5.25,21.578,9.847
3.861724,-4.76,22.689,10.398
3.872327,-4.13,23.719,11.006
3.88293,-3.78,24.251,12.024
3.893533,-3.43,24.587,12.936
3.904136,-3.08,25.102,13.24
3.914739,-2.66,25.143,13.816
3.925342,-2.52,25.139,14.242
3.935945,-2.24,25.297,14.554
3.946548,-2.1,25.18,14.817
3.957151,-1.82,24.693,15.158
3.967741,-1.54,24.133,15.912
3.978331,-0.7,23.452,16.148
3.988921,0.14,22.848,16.752
3.999511,0.77,22.41,16.817
4.010101,1.61,21.433,16.716
4.020691,2.59,20.813,16.606
4.031281,3.57,20.37,15.889
4.041871,4.27,19.778,15.216
4.052461,4.48,19.324,14.567
4.063051,5.25,18.59,14.295
4.073641,6.16,18.148,13.578
4.084231,6.93,17.799,12.734
4.094781,7.49,16.85,12.069
4.105331,8.19,16.607,11.031
4.115881,8.61,15.877,10.334
4.126431,9.45,15.528,9.491
4.136981,10.01,15.422,8.477
4.147531,10.57,14.988,8.116
4.158081,11.2,14.327,7.431
4.168631,12.04,14.056,6.956
4.179181,12.53,13.735,6.758
4.189731,12.74,13.784,6.482
4.200281,13.37,13.37,6.409
4.210831,13.44,12.969,6.267
4.221381,13.86,12.636,6.137
4.231921,14.14,12.498,6.113
4.242461,14.56,12.628,5.781
4.253001,14.91,12.397,5.882
4.263541,14.98,12.823,5.886
4.274081,15.47,13.289,6.466
4.284621,15.26,13.293,7.248
4.295161,14.77,14.035,7.877
4.305701,14.35,14.38,7.938
4.316241,13.51,14.457,8.307
4.326781,12.46,14.559,8.538
4.337321,11.55,14.238,8.339
4.347861,10.71,13.918,8.14
4.358354,9.66,13.52,7.573
4.368847,9.17,13.066,6.924
4.37934,8.47,12.657,6.425
4.389833,7.98,12.194,5.42
4.400326,7.63,11.107,4.731
4.410819,7.14,10.134,4.204
4.421312,6.79,8.946,3.283
4.431805,6.37,8.066,2.631
4.442298,5.81,6.646,1.812
4.452791,5.53,5.223,1.419
4.463284,5.25,4.031,0.924
4.473777,5.04,2.79,0.705
4.48427,4.55,1.938,0.697
4.494763,4.55,0.746,0.203
4.5052,4.62,-0.405,0.284
4.515637,4.83,-1.05,0.312
4.526074,4.48,-1.999,0.856
4.536511,4.13,-2.465,0.276
4.546948,3.99,-2.741,0.227
4.557385,3.64,-3.378,0.613
4.567822,3.5,-3.511,1.371
4.578259,3.15,-3.743,1.472
4.588696,3.01,-3.43,1.314
4.599133,2.73,-3.13,1.225
4.60957,2.87,-3.167,1.432
4.620007,2.94,-2.66,1.379
4.630411,2.59,-2.072,1.27
4.640815,2.8,-1.748,1.042
4.651219,3.29,-1.577,1.286
4.661623,3.36,-1.415,1.172
4.672027,3.08,-1.545,1.505
4.682431,3.22,-1.245,1.415
4.692835,3.15,-1.383,1.391
4.703239,3.01,-1.958,1.432
4.713643,2.87,-1.589,1.355
4.724047,2.87,-1.971,1.501
4.734451,2.52,-1.707,1.618
4.744855,2.17,-1.537,1.861
4.75526,2.1,-1.764,1.537
4.765665,1.68,-1.569,1.642
4.77607,1.68,-1.808,1.387
4.786475,1.4,-2.06,1.201
4.79688,1.26,-2.104,1.051
4.807285,1.26,-2.392,1.071
4.81769,1.19,-2.129,1.188
4.828095,1.05,-2.173,1.038
4.8385,0.98,-2.117,1.119
4.848905,0.77,-2.048,1.132
4.85931,0.91,-2.003,1.282
4.869715,0.77,-2.06,1.201
4.880097,0.84,-1.67,1.411
4.890479,0.7,-1.395,1.46
4.900861,0.77,-1.383,1.391
4.911243,0.91,-1.314,1.403
4.921625,1.19,-1.602,1.424
4.932007,0.98,-1.764,1.537
4.942389,1.05,-1.464,1.448
4.952771,1.4,-1.233,1.346
4.963153,1.4,-1.358,1.253
4.973535,1.19,-1.529,1.01
4.983917,1.12,-1.31,0.977
4.994299,1.05,-1.537,0.653
5.004681,0.91,-1.362,0.471
5.015038,0.7,-1.516,0.941
5.025395,0.56,-1.33,0.69
5.035752,0.7,-1.306,0.552
5.046109,0.63,-1.419,0.389
5.056466,0.42,-1.5,0.446
5.066823,0.28,-1.614,0.284
5.07718,0.28,-1.419,0.389
5.087537,0.28,-1.192,0.714
5.097894,0.14,-1.318,0.621
5.108251,0.35,-1.922,1.225
5.118608,0.42,-2.145,1.683
5.128965,0.63,-2.064,1.626
5.139322,0.77,-1.739,1.399
5.149673,0.77,-1.277,1.196
5.160024,0.77,-1.172,1.002
5.170375,0.91,-1.196,1.14
5.180726,1.33,-1.127,1.152
5.191077,1.4,-0.908,1.119
5.201428,1.54,-0.9,1.476
5.211779,1.4,-1.05,1.521
5.22213,1.33,-0.474,1.48
5.232481,1.33,-0.75,1.432
5.242832,0.98,-0.6,1.387
5.253183,0.98,-0.507,1.261
5.263534,0.56,-0.612,1.456
5.273908,0.42,-0.932,1.257
5.284282,0.56,-1.034,1.026
5.294656,0.49,-1.22,1.277
5.30503,0.63,-1.679,1.055
5.315404,0.35,-2.153,1.326
5.325778,0.49,-2.546,1.541
5.336152,0.56,-2.952,1.825
5.346526,0.35,-3.248,1.489
5.3569,0.49,-3.256,1.132
5.367274,0.28,-3.394,1.107
5.377648,0.28,-3.791,1.748
5.388022,0.21,-4.16,1.825
5.398396,0.07,-4.31,1.87
5.408774,0.07,-4.517,1.833
5.419152,-0.21,-4.253,1.951
5.42953,-0.21,-4.128,2.044
5.439908,-0.28,-3.957,2.288
5.450286,-0.28,-3.657,2.198
5.460664,-0.42,-3.933,2.15
5.471042,-0.56,-3.747,1.898
5.48142,-0.77,-3.552,2.004
5.491798,-0.77,-3.207,2.064
5.502176,-0.98,-2.834,1.562
5.512554,-1.12,-2.465,1.484
5.522932,-1.33,-2.262,1.947
5.53331,-1.19,-2.121,1.545
5.54373,-1.4,-2.283,1.659
5.55415,-1.75,-1.48,1.943
5.56457,-1.82,-1.626,1.561
5.57499,-1.75,-1.658,1.342
5.58541,-1.89,-1.703,1.192
5.59583,-2.03,-1.61,1.067
5.60625,-2.1,-1.61,1.067
5.61667,-2.03,-1.504,0.872
5.62709,-2.31,-1.253,1.059
5.63751,-2.38,-1.391,1.034
5.64793,-2.31,-1.127,1.152
5.65835,-1.96,-1.492,0.803
5.668817,-1.82,-1.034,1.026
5.679284,-1.96,-0.827,1.063
5.689751,-1.68,-0.997,0.819
5.700218,-1.26,-0.689,1.087
5.710685,-0.98,-0.596,0.961
5.721152,-0.7,-0.608,1.03
5.731619,-0.42,-0.434,0.848
5.742086,-0.28,-0.263,1.091
5.752553,0.0,-0.714,1.225
5.76302,0.0,-0.624,1.525
5.773487,0.14,-0.726,1.294
5.783954,0.28,-0.738,1.363
5.794421,0.35,-0.888,1.407
5.804888,0.7,-1.241,0.99
5.815368,0.7,-1.241,0.99
5.825848,0.84,-1.099,0.588
5.836328,1.19,-1.075,0.45
5.846808,1.19,-0.985,0.75
5.857288,1.47,-0.787,0.43
5.867768,1.4,-0.71,0.799
5.878248,1.47,-0.726,1.294
5.888728,1.61,-0.482,1.123
5.899208,1.47,-0.527,0.973
5.909688,1.54,-0.495,1.192
5.920168,1.33,-0.519,1.33
5.930648,1.54,-0.555,1.537
5.94117,1.82,-0.916,1.971
5.951692,1.96,-1.022,2.166
5.962214,1.75,-1.346,2.393
5.972736,1.75,-1.711,2.044
5.983258,2.1,-1.804,2.17
5.99378,2.59,-2.425,2.06
6.004302,2.66,-2.433,1.703
6.014824,3.15,-2.384,1.428
6.025346,3.36,-2.254,1.095
6.035868,3.64,-1.922,1.225
6.04639,3.64,-2.153,1.326
6.056912,3.85,-1.589,1.355
6.067443,3.36,-1.261,1.91
6.077974,3.5,-1.216,2.06
6.088505,2.94,-1.034,2.234
6.099036,2.52,-0.985,1.959
6.109567,2.17,-0.884,2.19
6.120098,2.03,-1.115,2.291
6.130629,1.96,-1.403,2.312
6.14116,1.82,-1.472,2.299
6.151691,1.96,-2.011,2.133
6.162222,1.61,-1.987,1.995
6.172753,1.54,-2.311,2.222
6.183284,1.54,-2.412,1.991
6.193815,1.19,-2.445,1.772
6.20437,1.33,-2.777,1.643
6.214925,0.63,-2.838,1.987
6.22548,0.98,-2.85,2.056
6.236035,0.84,-2.412,1.991
6.24659,0.35,-2.412,1.991
6.257145,0.7,-2.425,2.06
6.2677,0.35,-2.725,2.15
6.278255,0.84,-2.344,2.003
6.28881,1.05,-1.962,1.857
6.299365,0.98,-1.756,1.894
6.30992,1.05,-1.845,1.594
6.320475,1.54,-1.569,1.642
6.33103,1.54,-1.468,1.874
6.341589,1.4,-1.512,1.724
6.352148,1.33,-1.086,1.728
6.362707,1.4,-1.168,1.784
6.373266,1.33,-0.936,1.683
6.383825,1.19,-1.095,1.371
6.394384,1.19,-0.957,1.395
6.404943,0.98,-1.005,1.671
6.415502,0.56,-0.9,1.476
6.426061,0.84,-0.989,1.176
6.43662,0.91,-0.989,1.176
6.447179,0.49,-1.366,0.896
6.457738,0.56,-0.977,1.107
6.468297,0.28,-0.746,1.006
6.478895,0.84,-0.697,0.73
6.489493,0.77,-0.547,0.685
6.500091,0.77,-0.572,0.823
6.510689,0.63,-0.182,1.034
6.521287,0.49,0.118,0.945
6.531885,0.63,0.166,0.669
6.542483,0.91,0.016,0.714
6.553081,0.77,0.199,0.888
6.563679,0.98,0.268,0.9
6.574277,1.05,0.361,0.774
6.584875,0.91,0.304,0.693
6.595484,0.84,0.454,0.649
6.606093,1.33,0.547,0.523
6.616702,1.33,0.341,0.487
6.627311,1.47,0.434,0.361
6.63792,1.96,0.17,0.243
6.648529,2.1,0.069,0.012
6.659138,2.1,0.17,0.243
6.669747,2.38,-0.036,0.207
6.680356,2.1,-0.162,0.114
6.690965,1.75,-0.016,0.495
6.701574,1.89,-0.028,0.564
6.712183,2.17,-0.109,0.62
6.722792,2.24,0.081,1.152
6.733401,2.17,-0.057,1.127
6.744032,2.45,-0.499,0.41
6.754663,2.31,-0.024,0.138
6.765294,1.89,-0.247,0.596
6.775925,1.96,-0.219,1.241
6.786556,1.54,-0.186,1.46
6.797187,1.89,-0.401,1.067
6.807818,1.82,-1.062,1.59
6.818449,1.75,-1.488,1.586
6.82908,1.96,-1.573,2.068
6.839711,2.38,-1.824,1.882
6.850342,2.73,-1.764,1.537
6.860973,2.59,-2.039,1.488
6.871582,2.59,-1.496,1.229
6.882191,2.87,-1.715,1.261
6.8928,3.29,-1.784,1.249
6.903409,3.43,-1.512,1.724
6.914018,2.73,-1.662,1.768
6.924627,2.52,-1.399,1.886
6.935236,2.73,-0.892,1.833
6.945845,2.8,-1.143,1.646
6.956454,2.66,-1.074,1.659
6.967063,2.45,-0.795,1.281
6.977672,2.31,-0.762,1.5
6.988281,2.38,-0.88,1.764
6.99889,2.31,-1.305,1.76
7.009489,2.03,-0.969,1.464
7.020088,1.68,-0.685,1.869
7.030687,1.4,-0.847,1.983
7.041286,1.26,-0.912,1.545
7.051885,1.12,-0.803,0.925
7.062484,1.12,-0.815,0.994
7.073083,0.7,-0.945,1.326
7.083682,0.35,-0.738,1.363
7.094281,0.28,-0.9,1.476
7.10488,0.21,-0.819,1.419
7.115479,0.0,-0.495,1.192
7.126078,0.35,-0.482,1.123
7.136677,0.21,-0.288,1.229
7.147276,0.35,-0.186,1.46
7.157833,0.56,-0.312,1.367
7.16839,0.56,-0.142,1.61
7.178947,0.98,-0.292,1.654
7.189504,1.12,-0.28,1.586
7.200061,0.98,-0.499,1.618
7.210618,0.98,-0.9,1.476
7.221175,1.19,-1.005,1.671
7.231732,0.98,-1.05,1.521
7.242289,0.77,-1.451,1.379
7.252846,1.12,-1.634,1.205
7.263403,0.7,-1.46,1.022
7.273952,0.63,-1.565,1.217
7.284501,0.7,-1.679,1.055
7.29505,0.42,-1.61,1.067
7.305599,0.42,-1.61,1.067
7.316148,0.63,-1.135,0.795
7.326697,0.42,-1.058,1.164
7.337246,0.35,-0.86,0.844
7.347795,0.35,-0.422,0.779
7.358344,0.0,-0.239,0.953
7.368893,0.14,0.187,0.957
7.379442,0.21,-0.276,1.16
7.389991,0.21,0.057,1.289
7.40055,0.21,0.243,1.038
7.411109,0.0,0.231,1.107
7.421668,0.0,0.061,0.864
7.432227,0.35,0.004,0.783
7.442786,0.56,-0.203,0.746
7.453345,0.21,-0.04,0.633
7.463904,0.35,-0.215,0.815
7.474463,0.28,-0.263,1.091
7.485022,0.42,-0.539,1.042
7.495581,0.35,-0.632,1.168
7.50614,0.21,-0.75,1.432
7.516699,0.28,-1.245,1.415
7.527228,0.28,-1.074,1.659
7.537757,0.28,-1.143,1.646
7.548286,0.49,-1.326,1.472
7.558815,0.77,-1.614,1.492
7.569344,0.42,-1.533,1.436
7.579873,0.28,-1.439,1.31
7.590402,0.35,-1.439,1.31
7.600931,0.56,-1.76,1.111
7.61146,0.56,-1.439,1.31
7.621989,0.56,-0.851,1.2
7.632518,0.7,-0.742,0.58
7.643047,0.35,-0.778,0.787
7.653576,0.28,-0.782,1.213
7.664105,0.28,-0.839,1.131
7.674618,0.35,-0.831,1.488
7.685131,0.35,-0.799,1.707
7.695644,0.21,-0.928,2.04
7.706157,0.28,-1.334,2.324
7.71667,0.49,-1.52,2.575
7.727183,0.63,-1.565,2.425
7.737696,0.77,-1.549,1.93
7.748209,1.19,-1.593,1.78
7.758722,1.4,-1.634,1.205
7.769235,1.47,-1.468,0.665
7.779748,1.61,-1.825,0.673
7.790261,1.54,-1.784,1.249
7.800781,1.61,-1.626,1.561
7.811301,1.54,-1.683,1.48
7.821821,1.05,-1.464,1.448
7.832341,0.84,-1.476,1.517
7.842861,0.63,-0.993,1.602
7.853381,0.35,-1.074,1.659
7.863901,-0.14,-0.843,1.557
7.874421,-0.35,-1.281,1.622
7.884941,-0.63,-1.626,1.561
7.895461,-0.91,-1.524,1.793
7.905981,-0.91,-1.938,1.72
7.916501,-0.98,-1.833,1.525
7.926994,-1.54,-2.052,1.557
7.937487,-1.47,-2.06,1.201
7.94798,-1.33,-1.78,0.823
7.958473,-1.33,-2.161,0.969
7.968966,-1.4,-1.508,1.298
7.979459,-1.47,-1.358,1.253
7.989952,-1.47,-1.67,1.411
8.000445,-1.19,-1.865,1.306
8.010938,-1.19,-1.451,1.379
8.021431,-0.98,-1.383,1.391
8.031924,-0.56,-1.095,1.371
8.042417,-0.14,-0.681,1.444
8.05291,0.14,-0.746,1.006
8.063403,0.35,-0.795,1.281
8.073896,0.98,-0.681,1.444
8.084361,1.33,-0.405,1.492
8.094826,1.4,-0.474,1.48
8.105291,1.47,-0.831,1.488
8.115756,1.82,-0.531,1.399
8.126221,2.03,-0.531,1.399
8.136686,2.24,-1.079,0.876
8.147151,2.24,-1.083,1.302
8.157616,2.03,-1.37,1.322
8.168081,2.31,-1.233,1.346
8.178546,2.24,-1.184,1.071
8.189011,1.96,-1.083,1.302
8.199476,1.82,-1.334,1.115
8.209944,2.17,-1.589,1.355
8.220412,1.89,-1.658,1.342
8.23088,1.89,-1.52,1.367
8.241348,1.96,-1.107,1.44
8.251816,1.82,-1.577,1.286
8.262284,2.03,-1.439,1.31
8.272752,2.59,-1.464,1.448
8.28322,2.45,-1.808,1.387
8.293688,2.52,-1.545,1.505
8.304156,2.87,-1.2,1.565
8.314624,2.87,-1.301,1.334
8.325092,3.29,-1.346,1.184
8.335545,3.36,-0.957,1.395
8.345998,3.57,-0.624,1.525
8.356451,3.36,-0.981,1.533
8.366904,2.94,-1.305,1.76
8.377357,2.87,-1.614,1.492
8.38781,2.66,-1.808,1.387
8.398263,2.52,-1.739,1.399
8.408716,2.45,-1.731,1.756
8.419169,2.45,-1.764,1.537
8.429622,2.45,-1.533,1.436
8.440075,2.66,-1.52,1.367
8.450528,2.24,-1.812,1.813
8.460981,2.17,-1.808,1.387
8.471434,2.03,-1.464,1.448
8.481894,1.89,-1.176,1.428
8.492354,1.68,-1.37,1.322
8.502814,1.4,-1.099,1.797
8.513274,1.4,-1.204,1.991
8.523734,1.19,-0.949,1.752
8.534194,1.12,-0.855,1.626
8.544654,0.98,-1.374,1.748
8.555114,0.84,-1.63,1.987
8.565574,0.7,-1.654,2.125
8.576034,0.56,-2.06,2.409
8.586494,0.56,-2.197,2.385
8.596954,0.56,-2.222,2.523
8.607428,0.63,-2.968,2.32
8.617902,0.91,-3.163,2.214
8.628376,1.33,-3.069,2.089
8.63885,1.33,-3.471,1.947
8.649324,1.61,-3.021,1.813
8.659798,1.89,-2.96,1.468
8.670272,2.03,-2.741,1.436
8.680746,1.96,-2.526,1.829
8.69122,2.1,-2.149,2.109
8.701694,1.89,-1.873,2.158
8.712168,1.82,-1.541,2.287
8.722642,1.33,-1.715,2.47
8.733124,1.54,-1.22,2.486
8.743606,1.33,-1.184,2.279
8.754088,1.4,-1.009,2.097
8.76457,1.26,-1.078,2.084
8.775052,1.33,-1.18,1.853
8.785534,0.98,-1.65,1.699
8.796016,1.12,-1.443,1.736
8.806498,1.33,-1.455,1.805
8.81698,0.7,-1.589,1.355
8.827462,0.77,-1.61,1.067
8.837944,0.35,-1.987,0.787
8.848426,0.07,-2.246,1.452
8.858908,0.07,-2.185,2.316
8.86939,0.14,-2.023,2.202
8.879884,0.35,-2.319,1.866
8.890378,0.42,-2.364,1.716
8.900872,0.28,-2.331,1.935
8.911366,0.42,-2.376,1.785
8.92186,0.63,-2.352,1.647
8.932354,0.84,-2.384,1.428
8.942848,1.05,-2.327,1.509
8.953342,1.33,-2.388,1.853
8.963836,1.68,-2.676,1.874
8.97433,1.82,-2.364,1.716
8.984824,2.1,-2.583,1.748
8.995318,1.96,-2.502,1.691
9.005809,1.89,-2.388,1.853
9.0163,1.68,-2.538,1.898
9.026791,1.47,-2.988,2.032
9.037282,1.54,-3.601,2.279
9.047773,1.61,-3.718,2.543
9.058264,1.61,-4.294,2.584
9.068755,1.89,-4.926,2.543
9.079246,2.03,-5.527,2.722
9.089737,1.82,-5.965,2.787
9.100228,1.75,-6.204,2.531
9.110719,2.03,-6.707,2.158
9.12121,2.24,-6.97,2.041
9.131701,1.89,-6.593,2.32
9.142201,1.82,-6.751,2.008
9.152701,1.75,-6.946,1.903
9.163201,2.31,-7.335,1.692
9.173701,2.1,-7.027,1.96
9.184201,2.31,-7.21,1.785
9.194701,2.31,-7.124,1.303
9.205201,2.52,-7.352,0.978
9.215701,2.87,-7.096,0.739
9.226201,2.73,-7.376,1.116
9.236701,2.87,-7.408,0.897
9.247201,2.87,-7.376,1.116
9.257701,3.01,-7.558,0.942
9.268204,3.43,-7.319,1.197
9.278707,3.57,-7.181,1.222
9.28921,3.99,-7.011,1.465
9.299713,3.78,-6.435,1.424
9.310216,3.71,-6.642,1.388
9.320719,3.71,-6.691,1.663
9.331222,3.78,-6.427,1.781
9.341725,3.85,-5.819,1.959
9.352228,4.13,-5.478,2.446
9.362731,4.06,-4.732,2.649
9.373234,4.48,-4.545,2.397
9.383737,5.39,-4.566,2.109
9.39424,5.88,-4.517,1.833
9.404718,6.58,-3.88,2.657
9.415196,8.05,-3.965,3.139
9.425674,9.24,-3.552,3.212
9.436152,10.29,-3.677,3.119
9.44663,11.48,-3.75,3.532
9.457108,11.76,-3.823,3.946
9.467586,12.32,-3.385,3.881
9.478064,12.39,-3.312,3.467
9.488542,11.9,-3.057,3.228
9.49902,11.2,-2.319,3.074
9.509498,9.94,-2.088,2.973
9.519976,8.33,-1.784,2.458
9.530454,7.07,-2.076,1.695
9.540957,5.46,-2.477,1.553
9.55146,3.71,-2.145,1.683
9.561963,2.03,-2.043,1.914
9.572466,0.42,-2.031,1.845
9.582969,-0.91,-2.279,1.233
9.593472,-2.38,-2.656,0.953
9.603975,-3.64,-2.936,1.33
9.614478,-4.48,-3.037,1.099
9.624981,-5.25,-3.564,0.864
9.635484,-5.39,-4.002,0.929
9.645987,-5.88,-4.327,1.156
9.65649,-5.6,-4.744,1.509
9.666993,-4.97,-5.162,1.862
9.677496,-3.99,-5.235,2.276
9.688005,-2.87,-5.409,2.458
9.698514,-1.75,-5.494,2.941
9.709023,-0.91,-5.604,3.561
9.719532,0.21,-5.551,4.068
9.730041,1.26,-5.543,4.425
9.74055,2.31,-6.118,4.465
9.751059,3.57,-5.255,4.404
9.761568,4.69,-5.161,4.279
9.772077,5.25,-5.137,4.141
9.782586,6.3,-4.756,3.995
9.793095,7.14,-4.505,4.181
9.803604,7.49,-4.505,4.181
9.814113,8.19,-4.354,4.137
9.824652,8.33,-4.249,3.942
9.835191,8.61,-4.269,3.654
9.84573,8.82,-4.176,3.528
9.856269,8.68,-4.14,3.322
9.866808,8.4,-4.026,3.484
9.877347,8.33,-4.229,3.022
9.887886,7.91,-4.03,2.701
9.898425,7.7,-4.075,2.551
9.908964,7.7,-3.909,3.22
9.919503,7.56,-3.941,3.001
9.930042,8.05,-3.896,3.151
9.940581,8.26,-3.677,3.119
9.951109,8.47,-3.552,3.212
9.961637,8.4,-3.381,3.455
9.972165,8.4,-3.183,3.135
9.982693,8.89,-3.568,3.707
9.993221,9.38,-3.698,4.039
10.003749,9.73,-3.572,4.133
10.014277,9.87,-3.483,4.433
10.024805,10.08,-3.426,4.514
10.035333,10.01,-3.369,4.595
10.045861,9.8,-3.126,4.424
10.056389,10.01,-2.976,4.38
10.066917,9.8,-3.32,4.319
10.077445,9.8,-3.434,4.157
10.087981,10.29,-3.053,4.011
10.098517,10.15,-2.765,3.99
10.109053,10.01,-3.175,3.492
10.119589,9.38,-3.621,3.2
10.130125,9.24,-3.633,3.269
10.140661,9.24,-3.276,3.261
10.151197,9.1,-3.434,2.948
10.161733,8.68,-3.236,2.628
10.172269,8.75,-2.907,1.975
10.182805,8.47,-2.94,1.756
10.193341,7.91,-2.903,1.549
10.203877,7.56,-2.603,1.46
10.214413,7.14,-2.558,1.61
10.224949,6.72,-2.015,1.351
10.235456,6.44,-2.06,1.201
10.245963,6.02,-1.654,0.917
10.25647,5.39,-1.147,0.864
10.266977,4.76,-0.876,1.338
10.277484,4.55,-0.843,1.557
10.287991,4.13,-0.786,1.638
10.298498,3.85,-0.786,1.638
10.309005,3.85,-0.855,1.626
10.319512,3.36,-1.009,2.097
10.330019,2.94,-1.772,2.389
10.340526,2.8,-2.06,2.409
10.351033,3.15,-2.494,2.048
10.36154,3.29,-2.676,1.874
10.372033,3.22,-2.781,2.068
10.382526,3.85,-2.567,1.253
10.393019,3.78,-2.327,1.509
10.403512,3.71,-2.441,1.347
10.414005,3.71,-2.311,1.014
10.424498,3.85,-1.991,1.213
10.434991,3.36,-2.396,1.497
10.445484,3.36,-1.808,1.387
10.455977,3.15,-1.577,1.286
10.46647,3.08,-1.488,1.586
10.476963,2.59,-1.889,1.444
10.487456,2.52,-1.188,1.496
10.497935,2.1,-1.005,1.671
10.508414,2.17,-1.168,1.784
10.518893,2.38,-1.086,1.728
10.529372,2.17,-1.281,1.622
10.539851,1.89,-0.88,1.764
10.55033,1.68,-1.066,2.015
10.560809,1.68,-1.224,1.703
10.571288,1.4,-1.277,1.196
10.581767,1.47,-1.095,1.371
10.592246,1.12,-1.293,1.691
10.602725,1.05,-1.249,1.841
10.613204,1.12,-1.512,1.724
10.623683,0.84,-1.65,1.699
10.634137,0.77,-1.293,1.691
10.644591,0.98,-1.362,1.679
10.655045,0.98,-1.419,1.598
10.665499,1.61,-1.658,1.342
10.675953,1.96,-1.533,1.436
10.686407,1.89,-1.293,1.691
10.696861,1.82,-1.443,1.736
10.707315,1.75,-1.719,1.687
10.717769,1.61,-1.581,1.711
10.728223,1.61,-1.362,1.679
10.738677,1.33,-1.549,1.93
10.749131,1.47,-1.606,1.849
10.759585,0.98,-1.569,1.642
10.770028,0.91,-1.602,1.424
10.780471,0.84,-1.318,1.829
10.790914,0.56,-1.837,1.951
10.801357,0.35,-1.731,1.756
10.8118,0.63,-1.707,1.618
10.822243,0.21,-1.719,1.687
10.832686,0.28,-1.796,1.318
10.843129,0.07,-1.565,1.217
10.853572,0.14,-1.257,1.484
10.864015,0.21,-1.269,1.553
10.874458,0.42,-1.614,1.492
10.884901,0.28,-1.257,1.484
10.895369,0.49,-0.819,1.419
10.905837,0.56,-0.555,1.537
10.916305,0.35,-1.05,1.521
10.926773,0.07,-0.774,1.569
10.937241,0.0,-0.876,1.338
10.947709,-0.14,-0.953,0.969
10.958177,-0.21,-0.945,1.326
10.968645,-0.07,-1.001,1.245
10.979113,0.0,-1.058,1.164
10.989581,0.0,-1.038,1.452
11.000049,-0.07,-1.301,1.334
11.010517,0.14,-1.188,1.496
11.020985,0.21,-1.095,1.371
11.031441,-0.14,-1.557,1.574
11.041897,-0.14,-1.5,1.655
11.052353,0.07,-1.383,1.391
11.062809,-0.14,-1.488,1.586
11.073265,0.14,-1.293,1.691
11.083721,0.14,-1.305,1.76
11.094177,0.14,-1.05,1.521
11.104633,0.35,-0.969,1.464
11.115089,0.07,-1.038,1.452
11.125545,0.42,-1.143,1.646
11.136001,0.28,-1.549,1.93
11.146457,0.14,-1.93,2.076
11.156928,-0.14,-2.218,2.097
11.167399,0.21,-2.279,2.441
11.17787,0.28,-2.392,2.279
11.188341,0.49,-2.53,2.255
11.198812,0.42,-2.4,1.922
11.209283,0.77,-2.238,1.809
11.219754,0.84,-2.364,1.716
11.230225,1.33,-2.177,1.464
11.240696,1.61,-1.889,1.444
11.251167,1.75,-1.946,1.363
11.261638,1.47,-1.48,1.943
11.272109,1.33,-1.378,2.174
11.282591,1.26,-0.977,2.316
11.293073,1.47,-1.09,2.153
11.303555,1.4,-0.839,2.34
11.314037,1.26,-0.778,1.995
11.324519,1.12,-0.847,1.983
11.335001,1.33,-1.18,1.853
11.345483,1.47,-1.537,1.861
11.355965,1.33,-1.63,1.987
11.366447,1.12,-1.597,2.206
11.376929,0.98,-1.723,2.113
11.387411,1.12,-1.926,1.651
11.397893,1.4,-1.845,1.594
11.408375,1.12,-2.1,1.833
11.418854,0.98,-2.08,2.121
11.429333,0.77,-2.023,2.202
11.439812,0.7,-1.861,2.089
11.450291,0.91,-1.979,2.352
11.46077,0.98,-1.735,2.182
11.471249,1.4,-1.618,1.918
11.481728,1.75,-1.581,1.711
11.492207,2.1,-1.5,1.655
11.502686,2.31,-1.638,1.63
11.513165,2.31,-1.533,1.436
11.523644,2.45,-1.476,1.517
11.534123,2.59,-1.269,1.553
11.544602,2.59,-1.095,1.371
11.5551,2.66,-1.326,1.472
11.565598,2.59,-1.383,1.391
11.576096,2.52,-1.22,1.277
11.586594,2.52,-1.488,1.586
11.597092,2.59,-1.399,1.886
11.60759,2.31,-1.245,1.415
11.618088,2.38,-1.395,1.46
11.628586,2.38,-1.35,1.61
11.639084,2.24,-1.451,1.379
11.649582,2.03,-1.439,1.31
11.66008,1.82,-1.289,1.265
11.670578,1.75,-1.37,1.322
11.681086,1.61,-1.289,1.265
11.691594,1.75,-0.876,1.338
11.702102,1.61,-0.726,1.294
11.71261,1.75,-0.77,1.144
11.723118,1.89,-0.276,1.16
11.733626,2.1,-0.62,1.099
11.744134,1.96,-0.563,1.18
11.754642,1.75,-0.714,1.225
11.76515,1.61,-0.563,1.18
11.775658,1.82,-0.503,0.835
11.786166,1.82,-0.519,1.33
11.796674,1.75,-0.6,1.387
11.807182,1.75,-0.831,1.488
11.817701,1.96,-1.326,1.472
11.82822,1.54,-1.095,1.371
11.838739,1.47,-1.403,1.103
11.849258,1.61,-1.289,1.265
11.859777,1.33,-1.358,1.253
11.870296,1.47,-1.634,1.205
11.880815,1.26,-1.634,1.205
11.891334,1.4,-1.188,1.496
11.901853,1.33,-0.957,1.395
11.912372,1.12,-0.912,1.545
11.922891,1.05,-0.957,1.395
11.93341,0.98,-0.827,1.063
11.943926,0.77,-0.819,1.419
11.954442,0.77,-1.05,1.521
11.964958,0.84,-0.843,1.557
11.975474,0.84,-0.993,1.602
11.98599,0.84,-1.378,2.174
11.996506,0.91,-1.849,2.02
12.007022,0.98,-2.218,2.097
12.017538,0.91,-2.218,2.097
12.028054,0.91,-1.999,2.064
12.03857,1.47,-2.084,1.338
12.049086,1.68,-1.954,1.006
12.059602,1.75,-1.792,0.892
12.070118,1.89,-1.435,0.884
12.080646,1.61,-1.083,1.302
12.091174,1.96,-0.795,1.281
12.101702,1.75,-0.645,1.237
12.11223,1.54,-0.373,1.711
12.122758,1.47,-0.004,1.634
12.133286,1.05,0.26,1.752
12.143814,1.05,-0.13,1.541
12.154342,1.4,-0.004,1.634
12.16487,0.91,0.171,1.452
12.175398,0.98,-0.381,1.354
12.185926,0.98,-0.75,1.432
12.196454,0.77,-1.07,1.233
12.206982,0.7,-1.22,1.277
12.217541,0.91,-1.37,1.322
12.2281,0.98,-1.553,1.148
12.238659,0.77,-1.447,0.953
12.249218,0.84,-1.435,0.884
12.259777,1.05,-1.614,1.492
12.270336,1.12,-1.638,1.63
12.280895,1.26,-1.739,1.399
12.291454,1.47,-1.164,1.359
12.302013,1.4,-1.508,1.298
12.312572,1.54,-1.155,1.715
12.323131,1.61,-1.119,1.509
12.33369,1.89,-0.795,1.281
12.344263,1.89,-0.851,1.2
12.354836,2.03,-0.689,1.087
12.365409,2.17,-0.726,1.294
12.375982,2.24,-1.176,1.428
12.386555,1.82,-0.957,1.395
12.397128,1.82,-0.393,1.423
12.407701,1.75,-0.957,1.395
12.418274,1.47,-1.07,1.233
12.428847,1.54,-0.876,1.338
12.43942,1.47,-0.957,1.395
12.449993,0.98,-0.945,1.326
12.460566,0.84,-0.981,1.533
12.471139,0.77,-1.164,1.359
12.481737,0.91,-1.281,1.622
12.492335,1.05,-0.981,1.533
12.502933,0.84,-0.831,1.488
12.513531,0.77,-0.831,1.488
12.524129,0.7,-0.612,1.456
12.534727,0.84,-0.843,1.557
12.545325,0.77,-0.718,1.65
12.555923,0.84,-0.774,1.569
12.566521,0.91,-0.255,1.448
12.577119,0.98,-0.592,1.744
12.587717,1.05,-0.855,1.626
12.598315,1.26,-0.786,1.638
12.608922,1.05,-0.718,1.65
12.619529,0.98,-1.026,1.383
12.630136,0.84,-0.989,1.176
12.640743,1.05,-1.107,1.44
12.65135,1.19,-1.451,1.379
12.661957,1.54,-1.602,1.424
12.672564,1.54,-1.281,1.622
12.683171,1.61,-1.476,1.517
12.693778,1.68,-1.464,1.448
12.704385,1.4,-1.565,1.217
12.714992,1.33,-1.451,1.379
12.725599,1.26,-1.269,1.553
12.736206,1.26,-1.33,1.898
12.746788,1.19,-1.241,2.198
12.75737,1.4,-1.237,1.772
12.767952,1.68,-1.107,1.44
12.778534,1.4,-0.969,1.464
12.789116,1.33,-1.155,1.715
12.799698,1.47,-1.33,1.898
12.81028,1.54,-1.387,1.817
12.820862,1.47,-1.893,1.87
12.831444,1.54,-2.023,2.202
12.842026,1.68,-2.161,2.178
12.852608,1.89,-2.275,2.016
12.86319,1.89,-2.043,1.914
12.873772,2.17,-1.695,1.549
12.884354,2.03,-1.508,1.298
12.894936,2.38,-1.472,1.091
12.905528,2.45,-1.289,1.265
12.91612,2.45,-1.703,1.192
12.926712,2.31,-1.427,1.241
12.937304,1.96,-1.164,1.359
12.947896,1.68,-0.486,1.549
12.958488,1.61,-0.385,1.78
12.96908,1.47,-0.235,1.736
12.979672,1.33,0.041,1.784
12.990264,1.26,0.122,1.727
13.000856,1.19,-0.28,1.586
13.011425,1.26,-0.349,1.573
13.021994,1.33,-0.543,1.468
13.032563,1.54,-1.005,1.671
13.043132,1.19,-1.395,1.46
13.053701,1.19,-1.439,1.31
13.06427,1.05,-1.447,0.953
13.074839,0.84,-1.529,1.01
13.085408,1.12,-1.626,1.561
13.095977,0.7,-1.561,1.999
13.106546,0.7,-1.674,1.837
13.117115,0.84,-1.423,2.024
13.127684,0.98,-1.399,1.886
13.138253,1.12,-1.18,1.853
13.148774,1.47,-1.05,1.521
13.159295,1.89,-0.989,1.176
13.169816,1.89,-0.945,1.326
13.180337,1.96,-1.233,1.346
13.190858,2.17,-1.257,1.484
13.201379,2.03,-0.969,1.464
13.2119,1.89,-0.774,1.569
13.222421,2.31,-1.188,1.496
13.232942,2.03,-1.038,1.452
13.243463,1.82,-0.693,1.513
13.253984,1.82,-0.993,1.602
13.264505,1.61,-1.062,1.59
13.275026,1.47,-1.443,1.736
13.285534,1.68,-1.35,1.61
13.296042,1.75,-1.407,1.529
13.30655,1.54,-1.658,1.342
13.317058,1.47,-1.472,1.091
13.327566,1.4,-1.589,1.355
13.338074,1.54,-1.67,1.411
13.348582,1.54,-1.326,1.472
13.35909,1.54,-1.107,1.44
13.369598,1.4,-1.111,1.865
13.380106,1.54,-1.086,1.728
13.390614,1.47,-0.888,1.407
13.401122,1.33,-0.543,1.468
13.41163,1.33,-0.957,1.395
13.422096,1.61,-0.912,1.545
13.432562,1.4,-0.758,1.075
13.443028,1.61,-0.795,1.281
13.453494,1.68,-0.9,1.476
13.46396,1.26,-0.88,1.764
13.474426,1.4,-1.143,1.646
13.484892,1.47,-1.2,1.565
13.495358,1.4,-1.407,1.529
13.505824,1.47,-1.427,1.241
13.51629,1.19,-1.233,1.346
13.526756,0.91,-1.038,1.452
13.537222,1.19,-1.395,1.46
13.547688,1.05,-1.245,1.415
13.558154,1.12,-1.151,1.29
13.568573,1.4,-1.05,1.521
13.578992,1.19,-0.912,1.545
13.589411,1.05,-0.888,1.407
13.59983,1.19,-0.722,0.868
13.610249,1.19,-0.462,1.411
13.620668,1.33,-0.511,1.687
13.631087,1.19,-0.697,1.938
13.641506,1.26,-1.018,1.74
13.651925,1.54,-1.135,2.003
13.662344,1.4,-1.691,2.332
13.672763,1.54,-1.885,2.226
13.683182,1.61,-1.861,2.089
13.693572,1.61,-2.145,1.683
13.703962,1.61,-2.242,1.026
13.714352,1.75,-1.942,0.937
13.724742,1.89,-1.618,0.71
13.735132,2.24,-1.849,0.811
13.745522,1.96,-1.31,0.977
13.755912,2.03,-1.115,1.083
13.766302,1.61,-0.624,1.525
13.776692,1.54,0.077,1.577
13.787082,1.54,0.491,1.65
13.797472,1.33,0.592,1.881
13.807862,1.19,0.548,1.731
13.818252,0.98,0.146,1.59
13.828621,1.12,-0.292,1.654
13.83899,1.19,-0.58,1.675
13.849359,1.26,-0.762,1.5
13.859728,1.26,-1.589,1.355
13.870097,1.19,-1.496,1.229
13.880466,0.84,-1.31,0.977
13.890835,0.56,-1.731,0.548
13.901204,0.7,-1.857,0.454
13.911573,0.49,-1.869,0.523
13.921942,0.49,-1.679,1.055
13.932311,0.42,-1.338,1.541
13.94268,0.35,-1.431,1.667
13.953063,0.42,-1.731,1.756
13.963446,0.98,-1.03,1.809
13.973829,1.26,-0.774,1.569
13.984212,1.05,-0.855,1.626
13.994595,1.19,-0.876,1.338
14.004978,1.54,-0.405,1.492
14.015361,1.61,-0.681,1.444
14.025744,1.75,-0.669,1.375
14.036127,1.96,-0.669,1.375
14.04651,1.82,-0.819,1.419
14.056893,2.03,-0.762,1.5
14.067276,1.96,-0.957,1.395
14.077658,1.89,-1.233,1.346
14.08804,1.61,-0.969,1.464
14.098422,1.54,-1.07,1.233
14.108804,1.61,-1.322,1.046
14.119186,1.68,-1.496,1.229
14.129568,1.19,-1.257,1.484
14.13995,1.05,-1.196,1.14
14.150332,1.05,-1.289,1.265
14.160714,1.12,-1.338,1.541
14.171096,1.33,-1.281,1.622
14.181478,1.33,-1.326,1.472
14.19186,1.19,-1.155,1.715
14.202242,1.26,-1.119,1.509
14.212673,1.05,-0.981,1.533
14.223104,1.26,-1.005,1.671
14.233535,1.4,-0.649,1.663
14.243966,1.33,-0.843,1.557
14.254397,1.4,-0.361,1.642
14.264828,1.26,-0.649,1.663
14.275259,1.4,-1.05,1.521
14.28569,1.54,-1.05,1.521
14.296121,1.54,-1.107,1.44
14.306552,1.68,-1.257,1.484
14.316983,1.54,-1.164,1.359
14.327414,1.75,-1.026,1.383
14.337864,1.61,-1.038,1.452
14.348314,1.82,-1.119,1.509
14.358764,1.75,-1.245,1.415
14.369214,1.47,-1.164,1.359
14.379664,1.4,-0.969,1.464
14.390114,1.12,-0.855,1.626
14.400564,0.98,-0.843,1.557
14.411014,1.19,-0.868,1.695
14.421464,1.12,-0.636,1.594
14.431914,1.12,-0.531,1.399
14.442364,1.12,-0.831,1.488
14.452814,1.33,-1.05,1.521
14.463264,1.26,-1.237,1.772
14.473763,1.75,-1.581,1.711
14.484262,1.68,-1.435,2.093
14.494761,1.68,-1.747,2.251
14.50526,1.75,-2.116,2.328
14.515759,1.54,-1.954,2.214
14.526258,2.17,-2.376,1.785
14.536757,2.52,-2.417,1.209
14.547256,2.87,-2.035,1.063
14.557755,2.94,-1.792,0.892
14.568254,3.01,-1.516,0.941
14.578753,3.01,-1.391,1.034
14.589252,2.94,-1.176,1.428
14.59976,2.73,-0.73,1.719
14.610268,2.94,-0.754,1.857
14.620776,2.52,-0.608,2.238
14.631284,2.24,-0.296,2.08
14.641792,2.24,-0.328,1.861
14.6523,2.03,-0.446,2.125
14.662808,1.96,-0.721,2.076
14.673316,2.1,-1.216,2.06
14.683824,2.59,-2.238,1.809
14.694332,2.17,-2.421,1.634
14.70484,1.89,-2.514,1.76
14.715348,1.89,-2.51,1.334
14.725856,1.89,-2.141,1.257
14.736364,1.89,-2.429,1.278
14.746915,1.61,-2.295,1.728
14.757466,1.47,-2.388,1.853
14.768017,1.33,-2.137,2.04
14.778568,1.4,-2.06,2.409
14.789119,1.26,-1.922,2.433
14.79967,1.33,-1.678,2.263
14.810221,1.75,-1.399,1.886
14.820772,1.89,-1.362,1.679
14.831323,2.03,-1.2,1.565
14.841874,2.24,-1.131,1.578
14.852425,2.24,-1.176,1.428
14.862974,2.1,-1.155,1.715
14.873523,2.1,-1.305,1.76
14.884072,1.75,-1.261,1.91
14.894621,1.68,-1.443,1.736
14.90517,1.89,-1.431,1.667
14.915719,1.68,-1.192,1.922
14.926268,1.47,-1.443,1.736
14.936817,1.68,-1.869,1.732
14.947366,1.26,-1.95,1.789
14.957915,1.26,-2.206,2.028
14.968464,1.19,-2.145,1.683
14.979013,1.05,-1.756,1.894
14.989562,1.19,-1.743,1.825
15.000105,1.05,-1.8,1.744
15.010648,1.12,-1.5,1.655
15.021191,0.84,-1.155,1.715
15.031734,1.12,-0.957,1.395
15.042277,1.19,-0.855,1.626
15.05282,1.26,-0.843,1.557
15.063363,1.19,-0.673,1.801
15.073906,1.19,-0.624,1.525
15.084449,1.26,-0.774,1.569
15.094992,1.26,-0.45,1.342
15.105535,1.26,-0.186,1.46
15.116078,1.05,-0.669,1.375
15.126621,1.33,-0.876,1.338
15.137172,1.61,-1.095,1.371
15.147723,1.54,-0.969,1.464
15.158274,1.82,-1.451,1.379
15.168825,1.61,-1.533,1.436
15.179376,1.54,-1.257,1.484
15.189927,1.75,-1.281,1.622
15.200478,1.54,-1.533,1.436
15.211029,1.47,-1.889,1.444
15.22158,1.47,-1.934,1.294
15.232131,1.54,-1.35,1.61
15.242682,1.68,-1.407,1.529
15.253233,1.68,-1.281,1.622
15.263784,1.61,-0.932,1.257
15.274356,1.47,-0.669,1.375
15.284928,1.47,-0.531,1.399
15.2955,1.47,-0.774,1.569
15.306072,1.4,-0.592,1.744
15.316644,1.54,-0.742,1.788
15.327216,1.61,-1.261,1.91
15.337788,1.68,-1.277,2.405
15.34836,1.82,-1.61,2.275
15.358932,1.89,-1.837,1.951
15.369504,1.96,-1.845,1.594
15.380076,1.89,-1.865,1.306
15.390648,2.1,-1.93,0.868
15.401207,2.24,-1.687,0.698
15.411766,2.38,-1.744,0.617
15.422325,2.31,-1.622,1.136
15.432884,2.24,-1.07,1.233
15.443443,2.1,-0.924,1.614
15.454002,1.89,-0.142,1.61
15.464561,1.54,0.134,1.658
15.47512,1.47,0.077,1.577
15.485679,1.4,0.029,1.853
15.496238,1.19,-0.316,1.792
15.506797,1.47,-0.474,1.48
15.517356,1.4,-0.912,1.545
15.527915,1.33,-1.176,1.428
15.538491,1.26,-1.387,1.817
15.549067,1.33,-1.533,1.436
15.559643,1.12,-1.739,1.399
15.570219,0.98,-1.715,1.261
15.580795,0.98,-1.585,0.929
15.591371,0.98,-1.877,1.375
15.601947,0.77,-1.764,1.537
15.612523,1.05,-1.987,1.995
15.623099,0.84,-1.95,1.789
15.633675,0.84,-1.975,1.926
15.644251,1.05,-1.549,1.93
15.654827,1.47,-1.005,1.671
15.665403,1.54,-1.05,1.521
15.675979,1.82,-1.005,1.671
15.686552,1.82,-0.811,1.776
15.697125,2.1,-0.868,1.695
15.707698,2.17,-1.143,1.646
15.718271,2.24,-0.981,1.533
15.728844,2.1,-1.095,1.371
15.739417,1.96,-1.026,1.383
15.74999,1.82,-1.038,1.452
15.760563,1.75,-1.301,1.334
15.771136,1.61,-0.969,1.464
15.781709,1.47,-1.176,1.428
15.792282,1.33,-1.326,1.472
15.802855,1.4,-1.602,1.424
15.813401,1.4,-1.829,1.099
15.823947,1.68,-1.52,1.367
15.834493,1.19,-1.488,1.586
15.845039,1.26,-1.533,1.436
15.855585,1.61,-1.545,1.505
15.866131,1.61,-1.362,1.679
15.876677,1.4,-1.269,1.553
15.887223,1.54,-0.993,1.602
15.897769,1.54,-0.888,1.407
15.908315,1.68,-0.876,1.338
15.918861,1.61,-0.868,1.695
15.929407,1.19,-0.843,1.557
15.939953,1.05,-0.843,1.557
15.950479,1.26,-0.876,1.338
15.961005,1.4,-1.208,1.209
15.971531,1.05,-1.314,1.403
15.982057,0.84,-1.358,1.253
15.992583,0.84,-1.188,1.496
16.003109,1.19,-1.05,1.521
16.013635,0.77,-1.107,1.44
16.024161,1.19,-1.131,1.578
16.034687,1.05,-1.557,1.574
16.045213,0.98,-1.658,1.342
16.055739,0.77,-1.565,1.217
16.066265,0.49,-1.427,1.241
16.076791,0.42,-1.358,1.253
16.08731,0.49,-1.322,1.046
16.097829,0.42,-1.289,1.265
16.108348,0.42,-1.233,1.346
16.118867,0.56,-0.669,1.375
16.129386,0.49,-0.563,1.18
16.139905,0.42,-0.588,1.318
16.150424,0.49,-0.774,1.569
16.160943,0.63,-0.661,1.732
16.171462,0.84,-0.754,1.857
16.181981,0.63,-1.009,2.097
16.1925,0.42,-1.289,2.474
16.203019,0.98,-1.703,2.401
16.213508,1.05,-1.999,2.064
16.223997,1.05,-2.076,1.695
16.234486,1.47,-1.979,1.144
16.244975,1.33,-2.08,0.913
16.255464,1.54,-1.756,0.686
16.265953,1.4,-1.456,0.596
16.276442,1.61,-1.447,0.953
16.286931,1.54,-1.151,1.29
16.29742,1.61,-0.673,1.801
16.307909,1.4,-0.58,1.675
16.318398,1.05,-0.421,1.987
16.328887,0.84,-0.052,1.91
16.339376,0.98,-0.089,2.117
16.349849,0.98,-0.503,2.044
16.360322,1.12,-0.166,1.748
16.370795,0.98,-0.904,1.902
16.381268,1.05,-1.537,1.861
16.391741,1.12,-1.8,1.744
16.402214,1.12,-1.877,1.375
16.412687,0.77,-1.869,1.732
16.42316,0.63,-2.291,1.302
16.433633,0.7,-1.841,1.168
16.444106,0.91,-1.598,0.998
16.454579,0.49,-1.569,1.642
16.465052,0.56,-1.902,1.513
16.475497,0.7,-1.662,1.768
16.485942,0.77,-1.399,1.886
16.496387,0.7,-1.111,1.865
16.506832,0.98,-0.936,1.683
16.517277,1.05,-1.005,1.671
16.527722,1.19,-0.843,1.557
16.538167,1.54,-1.074,1.659
16.548612,1.47,-0.981,1.533
16.559057,1.61,-0.831,1.488
16.569502,1.68,-0.969,1.464
16.579947,1.61,-1.131,1.578
16.590392,1.33,-0.888,1.407
16.600837,1.19,-1.026,1.383
16.6113,1.4,-0.912,1.545
16.621763,1.61,-0.969,1.464
16.632226,1.33,-1.326,1.472
16.642689,0.98,-1.176,1.428
16.653152,0.98,-1.038,1.452
16.663615,0.49,-1.107,1.44
16.674078,0.77,-1.107,1.44
16.684541,0.84,-0.912,1.545
16.695004,0.98,-1.05,1.521
16.705467,1.12,-1.107,1.44
16.71593,0.91,-0.969,1.464
16.726393,1.05,-0.843,1.557
16.736856,0.98,-0.957,1.395
16.7473,1.33,-0.888,1.407
16.757744,1.4,-1.176,1.428
16.768188,1.33,-0.969,1.464
16.778632,1.33,-0.851,1.2
16.789076,1.05,-0.77,1.144
16.79952,1.47,-0.851,1.2
16.809964,1.19,-0.876,1.338
16.820408,1.19,-0.807,1.35
16.830852,1.26,-0.864,1.269
16.841296,1.4,-0.888,1.407
16.85174,1.54,-1.083,1.302
16.862184,1.68,-1.301,1.334
16.872635,1.61,-1.07,1.233
16.883086,1.68,-1.139,1.221
16.893537,1.61,-1.257,1.484
16.903988,1.54,-1.176,1.428
16.914439,1.75,-1.095,1.371
16.92489,1.54,-1.026,1.383
16.935341,1.26,-1.2,1.565
16.945792,1.54,-1.269,1.553
16.956243,1.33,-1.269,1.553
16.966694,1.33,-1.326,1.472
16.977145,1.19,-1.877,1.375
16.987596,1.26,-1.614,1.492
16.998047,1.05,-1.512,1.724
17.008498,1.12,-1.512,1.724
17.018968,0.98,-1.735,2.182
17.029438,0.63,-1.828,2.308
17.039908,1.26,-2.056,1.983
17.050378,1.33,-2.116,2.328
17.060848,1.12,-2.206,2.028
17.071318,1.26,-2.214,1.671
17.081788,1.89,-2.027,1.42
17.092258,2.03,-1.82,1.456
17.102728,2.31,-1.443,1.736
17.113198,2.17,-1.257,1.484
17.123668,1.82,-0.936,1.683
17.134182,1.47,-0.628,1.951
17.144696,1.54,-0.397,1.849
17.15521,1.19,-0.409,1.918
17.165724,1.05,-0.284,2.011
17.176238,0.91,-0.247,1.805
17.186752,1.19,-0.361,1.642
17.197266,1.12,-0.892,1.833
17.20778,1.12,-0.754,1.857
17.218294,0.98,-1.168,1.784
17.228808,0.84,-1.488,1.586
17.239322,0.91,-1.512,1.724
17.249836,0.98,-1.808,1.387
17.260425,0.77,-1.691,1.123
17.271014,0.98,-1.739,1.399
17.281603,0.7,-2.088,1.764
17.292192,0.84,-2.181,1.89
17.302781,1.05,-2.019,1.776
17.31337,0.91,-1.711,2.044
17.323959,1.12,-1.735,2.182
17.334548,1.26,-1.455,1.805
17.345137,1.61,-1.427,1.241
17.355726,1.96,-1.383,1.391
17.366315,1.96,-1.188,1.496
17.376904,2.03,-1.014,1.314
17.387556,2.03,-0.819,1.419
17.398208,2.03,-1.107,1.44
17.40886,1.82,-0.567,1.606
17.419512,1.68,-0.807,1.35
17.430164,1.68,-0.539,1.042
17.440816,1.68,-0.3,1.298
17.451468,1.47,-0.263,1.091
17.46212,1.68,-0.758,1.075
17.472772,1.4,-0.657,1.306
17.483424,1.12,-0.831,1.488
17.494076,1.54,-1.083,1.302
17.504728,1.47,-0.957,1.395
17.51538,1.26,-1.139,1.221
17.526099,1.26,-0.932,1.257
17.536818,1.19,-0.977,1.107
17.547537,1.54,-0.77,1.144
17.558256,1.61,-0.608,1.03
17.568975,1.4,-0.332,1.079
17.579694,1.19,-0.182,1.034
17.590413,1.12,-0.093,1.334
17.601132,1.33,-0.036,1.415
17.611851,1.47,-0.142,1.61
17.62257,1.4,-0.089,0.908
17.633289,1.12,0.093,1.083
17.644008,0.91,-0.113,1.046
17.654747,1.12,-0.369,1.285
17.665486,1.61,-0.345,1.148
17.676225,1.05,-0.426,1.204
17.686964,0.98,-0.413,1.135
17.697703,1.26,-0.482,1.123
17.708442,1.33,-0.628,0.742
17.719181,1.19,-0.872,0.912
17.72992,1.4,-0.827,1.063
17.740659,1.54,-0.701,1.156
17.751398,1.54,-0.632,1.168
17.762137,1.26,-0.632,1.168
17.772876,1.26,-0.657,1.306
17.783615,1.33,-0.701,1.156
17.794377,1.12,-0.665,0.949
17.805139,1.47,-0.632,1.168
17.815901,1.05,-0.276,1.16
17.826663,1.33,-0.077,0.839
17.837425,1.12,0.28,0.831
17.848187,1.26,-0.069,1.196
17.858949,1.19,-0.117,1.472
17.869711,0.84,-0.567,1.606
17.880473,1.05,-1.168,1.784
17.891235,1.19,-1.354,2.036
17.901997,1.4,-1.309,2.186
17.912759,1.54,-1.747,2.251
17.9235,1.26,-1.756,1.894
17.934241,1.54,-1.934,1.294
17.944982,2.03,-2.218,0.888
17.955723,2.17,-2.056,0.775
17.966464,2.1,-1.525,0.584
17.977205,2.03,-1.37,1.322
17.987946,2.03,-1.026,1.383
17.998687,1.96,-0.807,1.35
18.009428,1.82,-0.523,1.756
18.020169,1.4,-0.073,1.622
18.03091,1.54,0.077,1.577
18.041651,1.4,0.284,1.614
18.052392,1.33,0.065,1.646
18.063124,1.19,-0.235,1.736
18.073856,1.19,-0.547,1.894
18.084588,1.19,-0.892,1.833
18.09532,1.12,-0.9,1.476
18.106052,1.12,-1.395,1.46
18.116784,0.98,-1.922,1.225
18.127516,0.63,-2.011,0.925
18.138248,0.49,-1.942,0.937
18.14898,0.49,-1.987,0.787
18.159712,0.56,-2.003,1.282
18.170444,0.63,-1.8,1.744
18.181176,0.49,-1.93,2.076
18.191869,0.42,-1.987,1.995
18.202562,0.42,-1.528,2.218
18.213255,0.7,-1.366,2.105
18.223948,0.91,-1.35,1.61
18.234641,1.33,-1.143,1.646
18.245334,1.33,-1.107,1.44
18.256027,1.54,-1.257,1.484
18.26672,1.75,-1.119,1.509
18.277413,1.89,-1.115,1.083
18.288106,1.68,-1.062,1.59
18.298799,1.54,-0.973,1.89
18.309492,1.54,-0.636,1.594
18.320185,1.54,-1.086,1.728
18.330848,1.26,-1.383,1.391
18.341511,1.05,-1.188,1.496
18.352174,1.12,-1.37,1.322
18.362837,1.33,-1.383,1.391
18.3735,1.05,-1.233,1.346
18.384163,0.98,-1.176,1.428
18.394826,0.91,-1.695,1.549
18.405489,0.91,-1.658,1.342
18.416152,0.98,-0.945,1.326
18.426815,0.91,-1.176,1.428
18.437478,1.19,-1.196,1.14
18.448141,0.98,-0.795,1.281
18.458804,1.12,-0.645,1.237
18.469393,0.98,-0.357,1.217
18.479982,0.63,-0.551,1.111
18.490571,0.84,-0.438,1.273
18.50116,0.7,-0.515,0.904
18.511749,0.63,-0.491,0.766
18.522338,0.91,-0.495,1.192
18.532927,1.19,-0.288,1.229
18.543516,0.7,-0.138,1.184
18.554105,0.63,-0.182,1.034
18.564694,1.05,-0.588,1.318
18.575283,0.84,-0.896,1.05
18.585872,0.98,-0.6,1.387
18.596411,1.19,-0.567,1.606
18.60695,1.54,-0.924,1.614
18.617489,1.61,-1.119,1.509
18.628028,1.82,-1.014,1.314
18.638567,1.54,-1.139,1.221
18.649106,1.54,-1.139,1.221
18.659645,1.12,-0.86,0.844
18.670184,0.77,-0.754,0.649
18.680723,0.98,-0.803,0.925
18.691262,0.84,-0.401,1.067
18.701801,0.7,-0.044,1.058
18.71234,0.49,-0.174,1.391
18.722811,0.56,-0.276,1.16
18.733282,0.49,-0.507,1.261
18.743753,0.42,-0.117,1.472
18.754224,0.56,-0.462,1.411
18.764695,0.77,-1.038,1.452
18.775166,0.7,-1.435,2.093
18.785637,0.7,-1.528,2.218
18.796108,0.91,-1.618,1.918
18.806579,1.19,-2.226,1.74
18.81705,1.47,-2.246,1.452
18.827521,1.19,-1.841,1.168
18.837992,1.47,-1.516,0.941
18.848463,1.82,-1.492,0.803
18.858868,1.82,-1.135,0.795
18.869273,1.96,-0.872,0.912
18.879678,1.89,-0.426,1.204
18.890083,1.61,-0.117,1.472
18.900488,1.61,0.215,1.602
18.910893,1.33,0.296,1.545
18.921298,1.33,0.608,1.387
18.931703,0.98,0.791,1.561
18.942108,0.49,0.633,1.249
18.952513,0.84,0.288,1.188
18.962918,0.49,-0.243,1.379
18.973323,0.98,-0.45,1.342
18.983728,0.63,-0.632,1.168
18.994096,0.7,-1.196,1.14
19.004464,0.42,-1.273,0.771
19.014832,0.42,-1.16,0.933
19.0252,0.42,-1.399,0.677
19.035568,0.28,-1.16,0.933
19.045936,0.14,-1.038,1.452
19.056304,0.35,-1.074,1.659
19.066672,0.42,-0.993,1.602
19.07704,0.28,-0.888,1.407
19.087408,0.56,-0.543,1.468
19.097776,0.56,-0.405,1.492
19.108144,0.98,-0.243,1.379
19.118506,1.26,-0.15,1.253
19.128868,1.19,-0.231,1.31
19.13923,1.26,-0.194,1.103
19.149592,1.19,-0.032,0.989
19.159954,1.75,-0.162,1.322
19.170316,1.47,-0.093,1.334
19.180678,1.26,-0.551,1.111
19.19104,1.54,-0.722,0.868
19.201402,1.47,-0.941,0.9
19.211764,1.4,-0.77,1.144
19.222126,1.12,-1.014,1.314
19.232488,0.98,-1.164,1.359
19.242837,1.26,-1.484,1.16
19.253186,0.98,-1.164,1.359
19.263535,0.77,-1.176,1.428
19.273884,0.98,-1.237,1.772
19.284233,1.26,-1.2,1.565
19.294582,1.26,-1.338,1.541
19.304931,1.12,-1.086,1.728
19.31528,1.47,-0.936,1.683
19.325629,1.54,-0.888,1.407
19.335978,1.33,-0.9,1.476
19.346327,1.12,-0.868,1.695
19.356676,1.33,-0.75,1.432
19.367025,1.4,-0.831,1.488
19.377369,1.26,-0.6,1.387
19.387713,1.19,-0.9,1.476
19.398057,1.47,-0.945,1.326
19.408401,1.4,-1.074,1.659
19.418745,1.05,-1.05,1.521
19.429089,1.05,-0.9,1.476
19.439433,1.19,-1.038,1.452
19.449777,1.47,-1.151,1.29
19.460121,1.68,-1.131,1.578
19.470465,1.54,-1.338,1.541
19.480809,1.61,-1.374,1.748
19.491153,1.68,-1.224,1.703
19.501497,1.33,-1.245,1.415
19.511852,1.47,-1.269,1.553
19.522207,1.12,-1.237,1.772
19.532562,1.19,-1.099,1.797
19.542917,0.84,-0.904,1.902
19.553272,0.77,-0.555,1.537
19.563627,0.77,-0.32,1.01
19.573982,0.98,-0.596,0.961
19.584337,0.77,-0.555,1.537
19.594692,0.84,-0.693,1.513
19.605047,0.91,-0.507,1.261
19.615402,0.91,-0.649,1.663
19.625757,1.12,-1.431,1.667
19.636106,0.91,-1.378,2.174
19.646455,1.05,-1.573,2.068
19.656804,1.33,-1.573,2.068
19.667153,1.47,-1.488,1.586
19.677502,1.75,-1.245,1.415
19.687851,1.82,-1.139,1.221
19.6982,2.03,-1.058,1.164
19.708549,2.24,-0.803,0.925
19.718898,2.03,-0.864,1.269
19.729247,2.03,-0.888,1.407
19.739596,1.61,-0.349,1.573
19.749945,1.68,0.134,1.658
19.760294,1.82,0.171,1.452
19.770676,1.54,0.15,1.164
19.781058,1.33,0.389,1.419
19.79144,1.33,-0.15,1.253
19.801822,1.47,-0.024,1.346
19.812204,1.26,-0.198,1.529
19.822586,1.19,-0.543,1.468
19.832968,1.26,-1.176,1.428
19.84335,1.33,-1.107,1.44
19.853732,0.98,-0.815,0.994
19.864114,1.05,-0.912,0.337
19.874496,1.05,-0.965,1.038
19.884878,1.05,-1.289,1.265
19.89526,0.7,-1.419,1.598
19.905694,0.91,-1.407,1.529
19.916128,1.12,-1.237,1.772
19.926562,1.19,-1.143,1.646
19.936996,1.54,-0.993,1.602
19.94743,1.68,-0.864,1.269
19.957864,1.96,-0.977,1.107
19.968298,2.24,-0.872,0.912
19.978732,2.17,-0.896,1.05
19.989166,2.24,-0.612,1.456
19.9996,2.66,-0.864,1.269
20.010034,2.31,-0.657,1.306
20.020489,1.89,-0.632,1.168
20.030944,1.89,-0.576,1.249
20.041399,1.82,-0.446,0.916
20.051854,1.82,-0.576,1.249
20.062309,1.82,-0.486,1.549
20.072764,1.89,-0.912,1.545
20.083219,1.68,-1.05,1.521
20.093674,1.4,-1.139,1.221
20.104129,1.33,-1.257,1.484
20.114584,1.26,-1.188,1.496
20.125039,1.33,-1.095,1.371
20.135494,1.33,-1.058,1.164
20.145949,1.26,-1.001,1.245
20.15645,0.98,-1.062,1.59
20.166951,0.84,-0.6,1.387
20.177452,0.77,-0.324,1.436
20.187953,0.91,-0.462,1.411
20.198454,0.91,-0.714,1.225
20.208955,0.91,-0.774,1.569
20.219456,1.12,-0.945,1.326
20.229957,1.12,-0.957,1.395
20.240458,1.33,-0.876,1.338
20.250959,1.05,-0.75,1.432
20.26146,0.84,-0.843,1.557
20.271961,0.91,-0.932,1.257
20.282504,0.84,-0.981,1.533
20.293047,1.12,-0.819,1.419
20.30359,0.84,-0.969,1.464
20.314133,1.19,-1.083,1.302
20.324676,0.91,-1.301,1.334
20.335219,0.98,-1.107,1.44
20.345762,1.05,-1.314,1.403
20.356305,0.98,-1.131,1.578
20.366848,0.91,-0.945,1.326
20.377391,0.7,-1.034,1.026
20.387934,1.19,-0.563,1.18
20.398477,0.77,-0.758,1.075
20.40902,0.84,-0.474,1.48
20.419562,0.98,-0.405,1.492
20.430104,0.91,-0.345,1.148
20.440646,0.7,-0.345,1.148
20.451188,0.91,-0.3,1.298
20.46173,1.05,-0.405,1.492
20.472272,1.12,-0.843,1.557
20.482814,1.05,-1.095,1.371
20.493356,1.26,-0.936,1.683
20.503898,1.19,-1.322,2.255
20.51444,1.26,-1.784,2.458
20.524982,1.47,-2.068,2.052
20.535524,1.61,-1.926,1.651
20.546066,1.82,-1.873,0.949
20.556608,1.89,-1.731,0.548
20.56715,2.31,-1.399,0.677
20.577692,2.24,-1.468,0.665
20.588234,2.1,-1.31,0.977
20.598776,2.24,-0.876,1.338
20.609318,1.96,-0.336,1.504
20.61986,1.96,-0.235,1.736
20.630402,1.75,0.26,1.752
20.640944,1.68,0.126,1.302
20.651486,1.54,0.434,1.569
20.662028,1.19,-0.028,1.772
20.67257,1.47,-0.531,1.399
20.683112,1.54,-0.831,1.488
20.693702,1.54,-0.9,1.476
20.704292,1.4,-1.083,1.302
20.714882,1.19,-1.545,1.505
20.725472,1.05,-1.739,1.399
20.736062,1.26,-1.849,0.811
20.746652,1.05,-1.618,0.71
20.757242,1.12,-1.699,0.767
20.767832,1.33,-1.634,1.205
20.778422,1.05,-1.443,1.736
20.789012,1.12,-1.168,1.784
20.799602,1.05,-1.212,1.634
20.810192,1.4,-0.969,1.464
20.82077,1.33,-0.969,1.464
20.831348,1.4,-0.855,1.626
20.841926,1.54,-0.981,1.533
20.852504,1.75,-0.9,1.476
20.863082,1.75,-1.139,1.221
20.87366,1.96,-1.038,1.452
20.884238,1.68,-1.131,1.578
20.894816,1.54,-1.083,1.302
20.905394,1.47,-1.208,1.209
20.915972,1.61,-1.289,1.265
20.92655,1.47,-1.176,1.428
20.937128,1.33,-1.05,1.521
20.947706,1.05,-1.119,1.509
20.958309,0.84,-1.233,1.346
20.968912,0.77,-1.269,1.553
20.979515,0.91,-1.407,1.529
20.990118,1.12,-1.326,1.472
21.000721,0.84,-1.796,1.318
21.011324,0.91,-1.419,1.598
21.021927,0.77,-1.338,1.541
21.03253,0.98,-1.164,1.359
21.043133,0.84,-1.176,1.428
21.053736,0.7,-0.831,1.488
21.064339,0.77,-0.75,1.432
21.074942,0.84,-0.681,1.444
21.085517,0.77,-0.324,1.436
21.096092,0.91,-0.486,1.549
21.106667,0.91,-0.543,1.468
21.117242,0.98,-0.636,1.594
21.127817,0.91,-0.795,1.281
21.138392,0.98,-0.803,0.925
21.148967,1.26,-0.795,1.281
21.159542,1.05,-1.07,1.233
21.170117,1.26,-0.657,1.306
21.180692,1.4,-1.083,1.302
21.191267,1.12,-1.005,1.671
21.201842,1.12,-1.176,1.428
21.212417,1.26,-1.37,1.322
21.222995,1.26,-0.9,1.476
21.233573,1.68,-0.864,1.269
21.244151,1.47,-0.969,1.464
21.254729,1.33,-0.969,1.464
21.265307,1.12,-0.989,1.176
21.275885,1.33,-0.782,1.213
21.286463,1.47,-0.726,1.294
21.297041,1.12,-0.576,1.249
21.307619,0.84,-0.588,1.318
21.318197,1.19,-0.511,1.687
21.328775,1.19,-0.349,1.573
21.339353,1.33,0.114,1.371
21.349938,1.26,-0.312,1.367
21.360523,1.33,-0.186,1.46
21.371108,1.12,-0.373,1.711
21.381693,1.19,-0.892,1.833
21.392278,1.05,-1.342,1.967
21.402863,1.26,-1.662,1.768
21.413448,1.4,-1.537,1.861
21.424033,1.61,-1.796,1.318
21.434618,1.68,-1.76,1.111
21.445203,1.82,-1.8,0.536
21.455788,2.24,-1.476,0.308
21.466373,2.24,-0.961,0.612
21.476933,2.45,-1.297,0.908
21.487493,2.45,-0.584,0.892
21.498053,2.31,-0.15,1.253
21.508613,2.03,0.134,1.658
21.519173,2.03,0.26,1.752
21.529733,1.61,0.536,1.8
21.540293,1.4,0.604,1.812
21.550853,1.12,0.308,1.476
21.561413,1.12,0.0,1.208
21.571973,0.91,-0.531,1.399
21.582533,0.98,-0.519,1.33
21.593093,0.77,-1.001,1.245
21.603653,0.77,-1.577,1.286
21.614215,0.98,-1.646,1.273
21.624777,1.05,-1.954,1.006
21.635339,0.77,-1.857,0.454
21.645901,0.84,-1.662,0.56
21.656463,0.84,-1.634,1.205
21.667025,0.91,-1.455,1.805
21.677587,1.05,-1.281,1.622
21.688149,1.12,-1.224,1.703
21.698711,1.05,-1.362,1.679
21.709273,1.26,-0.924,1.614
21.719835,1.54,-0.786,1.638
21.730397,1.68,-0.612,1.456
21.740946,2.03,-0.738,1.363
21.751495,2.17,-0.669,1.375
21.762044,2.31,-1.22,1.277
21.772593,2.31,-1.139,1.221
21.783142,1.96,-0.92,1.188
21.793691,2.1,-1.115,1.083
21.80424,2.1,-1.208,1.209
21.814789,1.68,-1.107,1.44
21.825338,1.68,-0.888,1.407
21.835887,1.47,-1.099,1.797
21.846436,1.54,-1.168,1.784
21.856985,1.54,-1.492,2.011
21.867534,1.33,-1.881,1.801
21.878039,1.4,-2.121,1.545
21.888544,1.68,-2.388,1.853
21.899049,1.54,-1.962,1.857
21.909554,1.33,-1.812,1.813
21.920059,1.26,-1.906,1.939
21.930564,1.4,-1.743,1.825
21.941069,1.54,-1.492,2.011
21.951574,1.33,-1.273,1.979
21.962079,1.68,-1.237,1.772
21.972584,1.75,-1.018,1.74
21.983089,1.68,-1.135,2.003
21.993594,1.61,-0.523,1.756
22.004099,1.61,-0.442,1.699
22.014582,1.68,-0.636,1.594
22.025065,1.68,-0.993,1.602
22.035548,1.75,-0.624,1.525
22.046031,1.68,-0.726,1.294
22.056514,1.68,-0.888,1.407
22.066997,1.61,-0.973,1.89
22.07748,1.68,-1.366,2.105
22.087963,1.61,-1.423,2.024
22.098446,1.89,-1.305,1.76
22.108929,1.89,-1.488,1.586
22.119412,1.89,-1.533,1.436
22.129895,1.82,-1.553,1.148
22.140341,1.54,-1.346,1.184
22.150787,1.75,-1.289,1.265
22.161233,1.47,-1.164,1.359
22.171679,1.26,-0.924,1.614
22.182125,1.33,-0.945,1.326
22.192571,1.05,-0.308,0.941
22.203017,1.19,-0.345,1.148
22.213463,1.33,-0.401,1.067
22.223909,1.19,-0.324,1.436
22.234355,1.4,-0.661,1.732
22.244801,1.61,-0.734,2.145
22.255247,1.26,-1.111,1.865
22.265693,1.12,-1.224,1.703
22.276139,1.19,-1.009,2.097
22.286569,1.54,-1.062,1.59
22.296999,1.89,-1.484,1.16
22.307429,2.03,-1.561,0.791
22.317859,2.1,-1.135,0.795
22.328289,2.38,-0.949,0.544
22.338719,2.31,-0.949,0.544
22.349149,2.31,-1.034,1.026
22.359579,2.17,-0.519,1.33
22.370009,1.89,-0.15,1.253
22.380439,1.61,0.102,1.44
22.390869,1.4,0.138,1.233
22.401299,1.33,0.15,1.164
22.411741,1.33,0.195,1.314
22.422183,1.4,0.264,1.326
22.432625,1.19,-0.438,1.273
22.443067,1.19,-0.6,1.387
22.453509,1.12,-0.908,1.119
22.463951,1.05,-1.026,1.383
22.474393,0.84,-1.001,1.245
22.484835,0.91,-0.953,0.969
22.495277,1.12,-0.937,0.475
22.505719,1.19,-1.237,0.564
22.516161,1.19,-1.164,1.359
22.526603,1.05,-0.993,1.602
22.537033,1.05,-0.855,1.626
22.547463,0.91,-0.73,1.719
22.557893,1.05,-0.592,1.744
22.568323,1.47,-0.567,1.606
22.578753,1.54,-0.6,1.387
22.589183,1.75,-0.92,1.188
22.599613,1.82,-0.632,1.168
22.610043,2.1,-0.563,1.18
22.620473,2.17,-0.632,1.168
22.630903,2.17,-0.645,1.237
22.641333,2.1,-0.714,1.225
22.651763,1.82,-0.555,1.537
22.662193,1.89,-0.632,1.168
22.672647,1.33,-0.657,1.306
22.683101,1.61,-1.095,1.371
22.693555,1.47,-0.969,1.464
22.704009,1.33,-1.131,1.578
22.714463,1.05,-1.095,1.371
22.724917,1.12,-1.265,1.127
22.735371,1.05,-1.314,1.403
22.745825,1.12,-1.245,1.415
22.756279,0.84,-1.164,1.359
22.766733,0.98,-1.2,1.565
22.777187,1.12,-1.257,1.484
22.787641,1.26,-1.107,1.44
22.798105,1.4,-0.762,1.5
22.808569,1.12,-0.693,1.513
22.819033,1.33,-0.981,1.533
22.829497,1.47,-0.912,1.545
22.839961,1.33,-0.588,1.318
22.850425,1.12,-0.819,1.419
22.860889,1.12,-1.026,1.383
22.871353,1.05,-0.807,1.35
22.881817,1.33,-1.046,1.095
22.892281,1.12,-1.151,1.29
22.902745,1.19,-1.2,1.565
22.913209,1.54,-1.164,1.359
22.923673,1.4,-1.35,1.61
22.934215,1.26,-1.135,2.003
22.944757,1.61,-1.005,1.671
22.955299,1.47,-1.119,1.509
22.965841,1.05,-1.37,1.322
22.976383,1.4,-1.014,1.314
22.986925,1.33,-0.888,1.407
22.997467,1.19,-0.969,1.464
23.008009,1.4,-1.257,1.484
23.018551,1.12,-0.786,1.638
23.029093,1.19,-0.782,1.213
23.039635,1.26,-0.47,1.054
23.050207,1.12,-0.555,1.537
23.060779,1.33,-0.592,1.744
23.071351,1.4,-0.949,1.752
23.081923,1.54,-1.305,1.76
23.092495,1.54,-1.273,1.979
23.103067,1.47,-1.691,2.332
23.113639,1.4,-2.035,2.271
23.124211,1.75,-2.25,1.878
23.134783,2.1,-2.064,1.626
23.145355,2.17,-1.979,1.144
23.155927,2.31,-1.894,0.661
23.166499,2.52,-1.731,0.548
23.177071,2.73,-1.711,0.836
23.187702,2.94,-1.346,1.184
23.198333,3.08,-1.233,1.346
23.208964,2.24,-0.592,1.744
23.219595,2.03,-0.292,1.654
23.230226,1.68,-0.235,1.736
23.240857,1.75,-0.211,1.598
23.251488,1.68,-0.235,1.736
23.262119,1.47,-0.592,1.744
23.27275,1.47,-1.35,1.61
23.283381,1.4,-1.731,1.756
23.294012,1.4,-2.1,1.833
23.304643,1.47,-2.534,1.472
23.315274,0.98,-2.583,1.748
23.325952,1.05,-2.579,1.322
23.33663,0.91,-2.473,1.128
23.347308,1.05,-2.498,1.266
23.357986,0.77,-2.396,1.497
23.368664,0.63,-2.421,1.634
23.379342,0.42,-2.056,1.983
23.39002,0.28,-2.173,2.247
23.400698,0.28,-1.918,2.007
23.411376,0.56,-1.687,1.906
23.422054,0.98,-1.768,1.963
23.432732,1.19,-1.695,1.549
23.44341,1.4,-1.983,1.57
23.454101,1.4,-2.177,1.464
23.464792,1.89,-1.983,1.57
23.475483,1.61,-1.869,1.732
23.486174,1.54,-1.638,1.63
23.496865,1.61,-1.958,1.432
23.507556,1.75,-1.857,1.663
23.518247,1.68,-1.833,1.525
23.528938,1.61,-2.039,1.488
23.539629,1.54,-2.64,1.667
23.55032,1.47,-2.688,1.943
23.561011,1.47,-2.344,2.003
23.571702,1.47,-2.218,2.097
23.582393,1.4,-2.376,1.785
23.593085,1.33,-2.299,2.154
23.603777,1.4,-2.445,1.772
23.614469,1.47,-2.157,1.752
23.625161,1.4,-1.881,1.801
23.635853,1.26,-1.5,1.655
23.646545,1.26,-1.468,1.874
23.657237,1.12,-1.249,1.841
23.667929,1.33,-1.168,1.784
23.678621,0.91,-1.099,1.797
23.689313,0.98,-1.018,1.74
23.700005,1.33,-1.155,1.715
23.710697,1.4,-1.362,1.679
23.721389,1.33,-1.095,1.371
23.732081,1.19,-1.488,1.586
23.742773,0.98,-1.176,1.428
23.753482,1.4,-0.876,1.338
23.764191,1.33,-1.196,1.14
23.7749,1.4,-1.245,1.415
23.785609,1.33,-1.265,1.127
23.796318,1.19,-1.07,1.233
23.807027,1.26,-1.05,1.521
23.817736,0.98,-1.095,1.371
23.828445,0.98,-0.819,1.419
23.839154,0.77,-0.77,1.144
23.849863,0.56,-0.864,1.269
23.860572,0.7,-0.831,1.488
23.871241,0.56,-0.924,1.614
23.88191,0.42,-0.454,1.768
23.892579,0.35,-0.474,1.48
23.903248,0.28,-0.6,1.387
23.913917,0.77,-0.981,1.533
23.924586,0.56,-1.131,1.578
23.935255,0.49,-1.099,1.797
23.945924,0.21,-1.249,1.841
23.956593,0.63,-1.468,1.874
23.967262,0.7,-1.593,1.78
23.977931,0.7,-1.938,1.72
23.9886,1.05,-1.808,1.387
23.999269,1.54,-1.391,1.034
24.009928,1.68,-1.229,0.921
24.020587,1.33,-0.953,0.969
24.031246,1.4,-0.608,1.03
24.041905,1.75,-0.138,1.184
24.052564,1.54,-0.016,1.703
24.063223,1.54,0.073,2.003
24.073882,1.19,0.203,1.671
24.084541,0.98,0.215,1.602
24.0952,0.91,0.203,1.671
24.105859,1.05,0.158,1.521
24.116518,0.63,-0.267,1.517
24.127177,0.56,-0.474,1.48
24.137869,0.84,-0.831,1.488
24.148561,0.7,-1.046,1.095
24.159253,0.77,-1.415,1.172
24.169945,0.49,-1.322,1.046
24.180637,0.63,-1.48,0.734
24.191329,0.63,-1.375,0.54
24.202021,0.56,-1.289,1.265
24.212713,0.56,-1.168,1.784
24.223405,0.49,-1.342,1.967
24.234097,0.56,-1.411,1.955
24.244789,0.77,-1.168,1.784
24.255481,0.84,-1.018,1.74
24.266164,1.26,-0.924,1.614
24.276847,1.61,-1.107,1.44
24.28753,1.82,-1.107,1.44
24.298213,1.82,-0.888,1.407
24.308896,1.68,-1.083,1.302
24.319579,1.89,-1.001,1.245
24.330262,1.89,-0.758,1.075
24.340945,1.75,-0.795,1.281
24.351628,1.75,-0.701,1.156
24.362311,1.61,-0.572,0.823
24.372994,2.03,-0.851,1.2
24.383677,1.75,-0.969,1.464
24.39436,1.68,-1.083,1.302
24.405043,1.54,-0.969,1.464
24.415726,1.47,-0.961,1.821
24.426403,1.54,-1.086,1.728
24.43708,1.54,-1.212,1.634
24.447757,1.61,-1.005,1.671
24.458434,1.4,-1.062,1.59
24.469111,1.4,-1.257,1.484
24.479788,1.47,-1.314,1.403
24.490465,1.75,-1.164,1.359
24.501142,1.61,-0.993,1.602
24.511819,1.61,-0.831,1.488
24.522496,1.12,-0.932,1.257
24.533174,1.26,-1.038,1.452
24.543852,1.61,-0.774,1.569
24.55453,1.19,-0.912,1.545
24.565208,1.33,-0.762,1.5
24.575886,1.47,-0.819,1.419
24.586564,1.4,-0.774,1.569
24.597242,1.61,-0.807,1.35
24.60792,1.82,-1.001,1.245
24.618598,1.61,-1.37,1.322
24.629276,1.68,-1.062,1.59
24.639954,1.61,-1.176,1.428
24.650632,1.47,-1.107,1.44
24.66131,1.12,-1.038,1.452
24.671974,1.05,-1.245,1.415
24.682638,1.05,-1.005,1.671
24.693302,0.84,-0.993,1.602
24.703966,0.56,-1.026,1.383
24.71463,0.56,-0.989,1.176
24.725294,0.63,-0.888,1.407
24.735958,0.84,-0.405,1.492
24.746622,0.84,-0.912,1.545
24.757286,0.91,-0.936,1.683
24.76795,1.05,-0.961,1.821
24.778614,1.4,-1.111,1.865
24.789278,1.54,-1.297,2.117
24.799942,1.54,-1.549,1.93
24.810593,1.68,-1.395,1.46
24.821244,1.89,-1.403,1.103
24.831895,2.17,-1.297,0.908
24.842546,2.31,-1.423,0.815
24.853197,2.45,-1.123,0.726
24.863848,2.17,-0.466,0.629
24.874499,2.17,-0.434,0.848
24.88515,2.52,-0.332,1.079
24.895801,2.17,0.081,1.152
24.906452,1.96,0.3,1.119
24.917103,1.68,0.507,1.156
24.927754,1.89,0.552,1.306
24.938351,2.03,0.114,1.371
24.948948,1.75,0.377,1.488
24.959545,1.68,-0.43,1.63
24.970142,1.89,-0.58,1.675
24.980739,1.75,-0.936,1.683
24.991336,1.75,-0.981,1.533
25.001933,2.03,-0.957,1.395
25.01253,1.96,-1.184,1.071
25.023127,2.1,-1.456,0.596
25.033724,1.96,-1.666,0.986
25.044321,1.68,-1.524,1.793
25.054918,1.61,-1.662,1.768
25.065515,1.89,-1.687,1.906
25.076112,1.89,-1.975,1.926
25.086709,2.31,-1.695,1.549
25.097261,2.31,-1.314,1.403
25.107813,2.17,-1.083,1.302
25.118365,2.59,-1.37,1.322
25.128917,3.15,-0.981,1.533
25.139469,3.22,-0.567,1.606
25.150021,3.64,-0.604,1.813
25.160573,3.36,-0.259,1.873
25.171125,2.94,-0.503,2.044
25.181677,2.66,-0.251,2.23
25.192229,2.59,0.094,2.291
25.202729,2.1,-0.032,2.198
25.213229,1.89,-0.146,2.036
25.223729,1.82,-0.121,1.898
25.234229,1.68,-0.202,1.955
25.244729,1.47,-0.584,2.101
25.255229,1.54,-0.754,1.857
25.265729,1.19,-0.73,1.719
25.276229,1.19,-0.799,1.707
25.286729,0.98,-0.9,1.476
25.297229,1.12,-0.726,1.294
25.307729,0.98,-0.819,1.419
25.318229,0.77,-0.657,1.306
25.328729,0.77,-0.989,1.176
25.33919,0.84,-0.782,1.213
25.349651,0.56,-0.62,1.099
25.360112,0.91,-0.596,0.961
25.370573,0.77,-0.746,1.006
25.381034,1.12,-0.701,1.156
25.391495,0.77,-0.62,1.099
25.401956,0.7,-0.876,1.338
25.412417,1.12,-1.001,1.245
25.422878,1.05,-1.139,1.221
25.433339,1.19,-1.038,1.452
25.4438,1.19,-1.07,1.233
25.454261,1.19,-1.176,1.428
25.464664,1.54,-1.131,1.578
25.475067,1.68,-1.614,1.492
25.48547,1.68,-1.496,1.229
25.495873,1.47,-1.508,1.298
25.506276,1.54,-0.977,1.107
25.516679,1.61,-0.807,1.35
25.527082,1.33,-0.438,1.273
25.537485,1.47,-0.689,1.087
25.547888,1.68,-0.426,1.204
25.558291,1.61,-0.486,1.549
25.568694,1.75,-0.774,1.569
25.579097,1.68,-0.855,1.626
25.5895,1.82,-1.593,1.78
25.599875,1.61,-2.011,2.133
25.61025,1.96,-2.348,2.429
25.620625,1.96,-2.461,2.267
25.631,2.03,-2.709,1.655
25.641375,2.38,-2.972,1.537
25.65175,2.73,-3.191,1.57
25.662125,2.87,-3.224,1.351
25.6725,2.66,-2.611,1.103
25.682875,2.66,-1.967,1.075
25.69325,2.59,-1.853,1.237
25.703625,2.24,-1.35,1.61
25.714,1.96,-1.054,1.947
25.724375,1.89,-0.872,2.121
25.73473,1.82,-0.904,1.902
25.745085,1.75,-0.803,2.133
25.75544,1.68,-0.721,2.076
25.765795,1.68,-0.94,2.109
25.77615,1.4,-1.459,2.23
25.786505,1.4,-1.918,2.007
25.79686,1.54,-2.019,1.776
25.807215,1.26,-2.433,1.703
25.81757,1.12,-2.802,1.781
25.827925,1.12,-2.688,1.943
25.83828,1.19,-2.627,1.598
25.848635,1.12,-2.611,1.103
25.858999,1.05,-2.664,1.805
25.869363,0.84,-2.579,2.531
25.879727,0.98,-2.116,2.328
25.890091,0.77,-1.772,2.389
25.900455,0.91,-1.541,2.287
25.910819,1.19,-1.76,2.32
25.921183,1.12,-1.228,2.129
25.931547,1.33,-1.297,2.117
25.941911,1.75,-1.212,1.634
25.952275,1.75,-1.35,1.61
25.962639,1.75,-1.395,1.46
25.973003,1.54,-1.155,1.715
25.983367,1.75,-1.05,1.521
25.993737,1.68,-1.245,1.415
26.004107,1.47,-0.993,1.602
26.014477,1.05,-1.269,1.553
26.024847,1.47,-1.37,1.322
26.035217,1.19,-1.464,1.448
26.045587,0.98,-1.383,1.391
26.055957,0.91,-1.545,1.505
26.066327,0.63,-1.508,1.298
26.076697,0.49,-1.383,1.391
26.087067,0.49,-1.577,1.286
26.097437,0.7,-1.447,0.953
26.107807,0.77,-1.257,1.484
26.118187,0.63,-0.888,1.407
26.128567,0.84,-1.07,1.233
26.138947,0.98,-0.693,1.513
26.149327,0.84,-0.588,1.318
26.159707,0.84,-0.693,1.513
26.170087,0.7,-0.417,1.561
26.180467,0.63,-0.194,1.103
26.190847,0.77,-0.292,1.654
26.201227,1.26,-0.555,1.537
26.211607,1.12,-0.563,1.18
26.221987,1.26,-1.07,1.233
26.232367,1.54,-1.058,1.164
26.242747,1.75,-1.346,1.184
26.253163,1.61,-1.16,0.933
26.263579,1.61,-1.297,0.908
26.273995,1.61,-1.229,0.921
26.284411,1.54,-1.241,0.99
26.294827,1.33,-1.253,1.059
26.305243,1.33,-1.322,1.046
26.315659,1.19,-1.395,1.46
26.326075,1.26,-0.9,1.476
26.336491,1.33,-0.811,1.776
26.346907,1.47,-0.831,1.488
26.357323,1.12,-0.807,1.35
26.367739,0.98,-0.58,1.675
26.378155,0.77,-1.018,1.74
26.388571,0.91,-1.204,1.991
26.398987,0.91,-1.378,2.174
26.409403,1.12,-1.549,1.93
26.419819,1.12,-2.157,1.752
26.430235,1.33,-2.384,1.428
26.440651,1.75,-2.003,1.282
26.451067,1.96,-1.991,1.213
26.461483,2.24,-2.048,1.132
26.471899,2.03,-1.735,0.973
26.482315,2.38,-1.435,0.884
26.492731,2.8,-0.896,1.05
26.503147,2.73,-1.233,1.346
26.513563,2.31,-0.478,1.906
26.523998,2.31,-0.361,1.642
26.534433,1.89,0.122,1.727
26.544868,1.82,-0.016,1.703
26.555303,1.68,-0.223,1.667
26.565738,1.54,-0.117,1.472
26.576173,1.54,-0.531,1.399
26.586608,1.61,-0.908,1.119
26.597043,1.68,-1.265,1.127
26.607478,1.61,-1.439,1.31
26.617913,1.54,-1.577,1.286
26.628348,1.4,-1.679,1.055
26.638783,1.26,-1.78,0.823
26.649244,1.12,-1.322,1.046
26.659705,0.91,-1.557,1.574
26.670166,1.12,-1.756,1.894
26.680627,1.19,-1.374,1.748
26.691088,1.4,-1.212,1.634
26.701549,1.26,-1.269,1.553
26.71201,0.98,-1.188,1.496
26.722471,1.19,-0.864,1.269
26.732932,1.68,-0.888,1.407
26.743393,1.54,-0.495,1.192
26.753854,1.47,-0.657,1.306
26.764315,1.54,-0.782,1.213
26.77478,1.82,-0.819,1.419
26.785245,2.03,-0.795,1.281
26.79571,1.82,-0.864,1.269
26.806175,1.68,-0.9,1.476
26.81664,1.75,-0.718,1.65
26.827105,1.75,-0.807,1.35
26.83757,1.75,-0.807,1.35
26.848035,1.61,-0.738,1.363
26.8585,1.68,-0.843,1.557
26.868965,1.61,-0.949,1.752
26.87943,1.33,-0.993,1.602
26.889895,1.47,-0.969,1.464
26.90036,1.47,-1.083,1.302
26.910825,1.4,-1.407,1.529
26.92129,1.47,-1.05,1.521
26.931816,1.68,-0.831,1.488
26.942342,1.33,-0.75,1.432
26.952868,1.33,-0.681,1.444
26.963394,1.33,-0.681,1.444
26.97392,1.19,-0.864,1.269
26.984446,1.4,-1.151,1.29
26.994972,1.47,-0.795,1.281
27.005498,1.47,-0.669,1.375
27.016024,1.47,-0.932,1.257
27.02655,1.54,-0.75,1.432
27.037123,1.68,-0.519,1.33
27.047696,1.89,-0.705,1.582
27.058269,1.96,-1.164,1.359
27.068842,1.96,-1.107,1.44
27.079415,1.89,-0.888,1.407
27.089988,1.96,-0.908,1.119
27.100561,1.96,-1.103,1.014
27.111134,1.96,-0.758,1.075
27.121707,1.75,-0.503,0.835
27.13228,1.54,-0.365,0.86
27.142853,1.61,0.316,0.624
27.153426,1.54,0.47,0.154
27.16401,1.54,0.722,0.341
27.174594,1.89,0.515,0.304
27.185178,1.82,0.799,0.71
27.195762,1.68,0.657,1.111
27.206346,1.4,0.462,1.006
27.21693,1.47,0.325,0.981
27.227514,1.61,-0.324,1.436
27.238098,2.03,-0.774,1.569
27.248682,1.89,-0.957,1.395
27.259266,2.03,-1.451,1.379
27.26985,2.38,-1.529,1.01
27.280434,2.45,-1.606,0.641
27.291018,2.45,-2.169,0.613
27.301594,2.52,-2.356,0.864
27.31217,2.59,-2.048,1.132
27.322746,2.59,-1.857,1.663
27.333322,2.24,-1.533,1.436
27.343898,2.03,-1.407,1.529
27.354474,2.03,-1.176,1.428
27.36505,1.89,-0.563,1.18
27.375626,1.75,-0.219,1.241
27.386202,1.54,-0.312,1.367
27.396778,1.75,-0.43,1.63
27.407354,1.54,-0.511,1.687
27.41793,1.47,-0.831,1.488
27.428506,1.26,-1.107,1.44
27.439103,1.47,-1.257,1.484
27.4497,1.26,-1.188,1.496
27.460297,1.12,-1.565,1.217
27.470894,1.4,-1.666,0.986
27.481491,1.33,-1.289,1.265
27.492088,1.12,-1.812,1.813
27.502685,1.4,-1.699,1.975
27.513282,1.61,-1.593,1.78
27.523879,1.89,-1.374,1.748
27.534476,1.89,-1.561,1.999
27.545073,2.17,-1.638,1.63
27.55567,2.45,-1.752,1.468
27.566267,2.31,-1.22,1.277
27.576864,2.87,-1.151,1.29
27.587481,3.22,-0.888,1.407
27.598098,2.94,-1.083,1.302
27.608715,2.87,-1.877,1.375
27.619332,2.52,-1.451,1.379
27.629949,2.1,-1.005,1.671
27.640566,2.45,-1.281,1.622
27.651183,2.31,-1.131,1.578
27.6618,2.17,-1.224,1.703
27.672417,2.24,-1.626,1.561
27.683034,2.17,-1.099,1.797
27.693651,2.31,-0.499,1.618
27.704268,2.17,-0.324,1.436
27.714855,1.96,-0.495,1.192
27.725442,1.82,0.012,1.139
27.736029,2.17,0.681,0.973
27.746616,1.96,0.75,0.985
27.757203,1.68,1.241,1.427
27.76779,1.61,1.432,1.958
27.778377,1.75,1.48,1.683
27.788964,1.82,1.18,1.772
27.799551,1.82,0.811,1.849
27.810138,1.75,0.422,1.638
27.820725,1.75,0.065,1.646
27.831312,1.75,-0.75,1.432
27.841899,1.68,-1.257,1.484
27.852486,1.82,-1.614,1.492
27.863085,1.75,-2.441,1.347
27.873684,1.33,-2.765,1.574
27.884283,1.47,-3.155,1.363
27.894882,1.33,-3.142,1.294
27.905481,1.19,-3.033,1.882
27.91608,0.77,-3.114,1.939
27.926679,0.77,-2.931,2.113
27.937278,0.49,-2.595,1.817
27.947877,0.56,-2.4,1.922
27.958476,0.77,-2.031,1.845
27.969075,1.05,-1.707,1.618
27.979646,1.12,-1.431,1.667
27.990217,1.19,-0.681,1.444
28.000788,1.26,-0.198,1.529
28.011359,1.19,-0.024,1.346
28.02193,1.05,-0.255,1.448
28.032501,0.91,-0.393,1.423
28.043072,1.05,-0.312,1.367
28.053643,1.54,-0.932,1.257
28.064214,1.54,-1.119,1.509
28.074785,1.68,-1.845,1.594
28.085356,1.68,-2.165,1.395
28.095927,1.82,-1.894,0.661
28.106498,2.1,-1.812,0.604
28.117059,2.38,-1.683,0.272
28.12762,2.52,-2.06,-0.008
28.138181,2.52,-1.89,0.235
28.148742,2.31,-1.549,0.722
28.159303,2.52,-1.565,1.217
28.169864,2.52,-1.245,1.415
28.180425,2.24,-0.807,1.35
28.190986,1.96,-0.211,1.598
28.201547,2.03,-0.016,1.703
28.212108,1.75,-0.142,1.61
28.222669,1.61,-0.316,1.792
28.23323,1.75,-0.211,1.598
28.243791,1.82,-0.75,1.432
28.254352,1.75,-1.151,1.29
28.264899,1.61,-1.415,1.172
28.275446,1.96,-1.841,1.168
28.285993,1.89,-2.356,0.864
28.29654,1.75,-1.975,0.718
28.307087,1.75,-2.376,0.576
28.317634,1.89,-2.096,0.199
28.328181,1.61,-2.157,0.544
28.338728,1.61,-1.496,1.229
28.349275,1.47,-1.804,0.961
28.359822,1.54,-1.589,1.355
28.370369,1.4,-0.888,1.407
28.380916,1.82,-0.908,1.119
28.391419,1.96,-0.738,1.363
28.401922,2.1,-0.989,1.176
28.412425,2.31,-0.827,1.063
28.422928,2.45,-0.876,1.338
28.433431,2.03,-0.908,1.119
28.443934,2.03,-0.491,0.766
28.454437,2.24,-0.941,0.9
28.46494,1.82,-0.823,0.637
28.475443,1.47,-0.892,0.625
28.485946,1.61,-1.33,0.69
28.496449,1.61,-1.816,1.03
28.506952,1.54,-2.052,1.557
28.517455,1.47,-2.554,2.393
28.527949,1.33,-3.325,2.328
28.538443,1.4,-3.45,2.235
28.548937,1.26,-3.625,2.417
28.559431,1.61,-3.617,2.774
28.569925,1.82,-3.511,2.579
28.580419,1.82,-2.798,2.563
28.590913,2.31,-2.716,2.506
28.601407,2.45,-2.57,2.888
28.611901,2.31,-2.25,3.086
28.622395,3.08,-2.064,2.835
28.632889,3.29,-1.545,2.713
28.643383,3.01,-1.451,2.587
28.653877,3.43,-1.265,2.336
28.664354,3.08,-1.001,2.453
28.674831,2.52,-0.928,2.04
28.685308,2.38,-1.184,2.279
28.695785,2.31,-1.196,2.348
28.706262,2.31,-1.09,2.153
28.716739,2.03,-1.318,1.829
28.727216,1.89,-1.159,2.141
28.737693,1.75,-1.366,2.105
28.74817,1.61,-1.135,2.003
28.758647,1.33,-1.192,1.922
28.769124,1.05,-1.342,1.967
28.779601,0.77,-1.249,1.841
28.790048,-0.14,-1.168,1.784
28.800495,-0.7,-0.888,1.407
28.810942,-1.33,-0.758,1.075
28.821389,-1.75,-0.466,0.629
28.831836,-1.96,-0.442,0.491
28.842283,-2.24,-0.093,0.126
28.85273,-2.17,-0.073,-0.795
28.863177,-2.38,0.324,-1.436
28.873624,-2.66,0.681,-1.444
28.884071,-2.8,0.9,-1.476
28.894518,-2.17,0.819,-1.419
28.904965,-1.89,0.989,-1.176
28.915412,-1.33,1.63,-0.779
28.925872,-0.56,2.007,-0.499
28.936332,0.07,2.482,-0.771
28.946792,0.77,2.644,-0.884
28.957252,1.26,2.538,-0.69
28.967712,2.17,2.384,-0.219
28.978172,2.45,2.206,0.389
28.988632,3.29,1.813,0.604
28.999092,3.57,1.752,0.949
29.009552,3.64,1.505,1.545
29.020012,3.22,0.669,1.042
29.030472,2.45,-0.089,0.908
29.040932,2.1,-0.669,0.166
29.05138,1.82,-1.002,0.037
29.061828,1.54,-1.618,-0.499
29.072276,1.4,-2.502,-0.725
29.082724,1.47,-2.32,-0.551
29.093172,1.12,-2.413,-0.425
29.10362,0.63,-2.218,-0.32
29.114068,0.63,-1.809,0.179
29.124516,0.84,-1.508,1.298
29.134964,1.19,-1.459,2.23
29.145412,0.91,-1.147,3.281
29.15586,1.26,-0.75,3.848
29.166308,1.47,-0.271,4.359
29.176756,1.61,-0.324,3.852
29.187197,1.75,-0.068,3.613
29.197638,2.17,-0.348,2.782
29.208079,2.31,-0.649,1.663
29.21852,2.17,-1.006,0.462
29.228961,2.24,-1.679,-0.154
29.239402,2.03,-2.226,-0.677
29.249843,1.89,-2.774,-1.2
29.260284,2.1,-3.252,-1.711
29.270725,1.89,-3.139,-1.549
29.281166,2.1,-3.297,-1.861
29.291607,2.59,-3.743,-0.944
29.302048,3.15,-3.313,1.051
29.312489,3.57,-2.518,2.186
29.322913,3.78,-1.447,3.37
29.333337,4.06,-0.737,3.779
29.343761,4.06,-0.218,3.658
29.354185,4.13,0.43,3.203
29.364609,3.64,0.771,2.482
29.375033,3.85,1.225,1.922
29.385457,3.08,0.949,1.873
29.395881,3.15,0.361,1.983
29.406305,3.08,-0.044,2.267
29.416729,2.52,-0.21,2.806
29.427153,2.59,-1.261,3.118
29.437577,2.66,-1.654,3.333
29.448021,2.59,-1.97,3.917
29.458465,2.73,-1.97,3.917
29.468909,3.29,-2.141,3.674
29.479353,3.36,-2.469,3.119
29.489797,3.71,-2.404,2.348
29.500241,3.99,-2.867,1.343
29.510685,5.04,-3.532,1.083
29.521129,5.39,-3.771,0.828
29.531573,5.74,-4.481,0.418
29.542017,6.02,-5.032,0.321
29.552461,6.58,-5.296,0.203
29.562905,6.86,-5.049,-0.393
29.573349,7.42,-4.343,-0.766
29.583793,7.98,-3.573,-0.701
29.594237,8.19,-2.822,0.284
29.604681,8.75,-1.403,1.103
29.615125,9.38,-0.62,2.307
29.625569,9.17,0.394,3.41
29.636013,9.31,0.722,3.966
29.646457,9.38,1.343,4.075
29.656901,8.96,1.769,4.079
29.667345,8.82,1.736,3.86
29.677789,8.33,1.623,3.698
29.688233,7.91,0.957,3.438
29.698677,7.56,0.045,3.775
29.709146,7.42,-0.656,3.723
29.719615,7.28,-1.334,3.532
29.730084,7.0,-1.8,2.952
29.740553,7.14,-1.966,2.283
29.751022,7.28,-2.076,1.695
29.761491,7.49,-2.344,0.795
29.77196,8.12,-1.744,-0.592
29.782429,8.33,-1.752,-0.949
29.792898,8.26,-1.918,-0.409
29.803367,8.12,-2.068,-0.365
29.813836,8.33,-1.642,-0.361
29.824305,8.26,-1.44,0.102
29.834772,8.47,-1.164,0.15
29.845239,8.19,-0.718,0.442
29.855706,8.33,-0.045,-0.15
29.866173,8.96,0.19,-0.677
29.87664,8.61,0.726,-1.294
29.887107,8.54,1.127,-1.152
29.897574,8.89,1.719,-0.479
29.908041,8.89,2.291,1.115
29.918508,9.03,2.51,2.291
29.928975,8.4,2.831,2.489
29.939442,8.33,3.11,2.112
29.949909,8.12,3.317,2.149
29.960376,7.28,3.204,1.986
29.97085,6.37,3.078,1.893
29.981324,5.88,2.786,2.339
29.991798,5.32,2.515,3.073
30.002272,4.83,2.158,3.081
30.012746,4.48,1.566,2.408
30.02322,4.13,0.905,1.723
30.033694,4.41,0.247,0.612
30.044168,5.11,0.304,-0.515
30.054642,5.67,0.016,-1.703
30.065116,6.09,-0.702,-2.469
30.07559,6.3,-1.217,-2.773
30.086064,6.93,-1.943,-2.688
30.096538,7.14,-2.697,-2.039
30.107044,7.84,-2.555,-1.232
30.11755,7.91,-2.478,-0.863
30.128056,8.12,-2.238,-0.608
30.138562,8.68,-1.715,-1.155
30.149068,9.03,-0.876,-1.079
30.159574,8.75,-0.065,-0.438
30.17008,8.82,0.908,0.089
30.180586,8.61,1.022,1.46
30.191092,8.54,1.618,2.915
30.201598,8.12,1.809,3.446
30.212104,7.63,2.267,3.669
30.222612,7.49,2.571,3.154
30.23312,7.14,2.673,2.177
30.243628,6.86,2.802,1.845
30.254136,6.3,2.064,1.999
30.264644,5.6,1.16,2.692
30.275152,4.83,0.69,3.747
30.28566,4.13,-0.498,4.035
30.296168,3.15,-1.37,3.739
30.306676,2.52,-2.201,2.81
30.317184,2.45,-2.948,1.399
30.327692,2.38,-3.13,0.017
30.3382,3.08,-3.625,-1.208
30.348708,4.13,-3.54,-1.69
30.359243,4.41,-3.54,-0.482
30.369778,4.34,-3.593,0.219
30.380313,4.69,-3.82,1.103
30.390848,5.18,-3.982,1.217
30.401383,5.39,-3.653,1.773
30.411918,5.6,-2.696,1.586
30.422453,5.67,-1.606,0.641
30.432988,6.02,-0.689,-0.122
30.443523,6.72,0.268,-0.308
30.454058,6.65,0.576,1.168
30.464593,6.58,1.051,3.313
30.475128,6.72,1.396,4.582
30.485651,6.51,1.392,5.008
30.496174,6.16,1.351,4.432
30.506697,6.09,1.047,3.739
30.51722,5.46,0.337,3.329
30.527743,5.04,-0.235,2.944
30.538266,4.97,-1.062,2.798
30.548789,4.76,-1.873,3.366
30.559312,4.48,-3.0,3.309
30.569835,4.48,-3.645,3.338
30.580358,5.32,-3.888,2.3
30.590881,6.86,-3.99,0.86
30.601404,8.89,-4.452,-0.145
30.611927,11.06,-5.316,-0.084
30.62245,14.49,-6.545,0.836
30.632989,18.06,-7.404,1.68
30.643528,22.12,-8.26,2.098
30.654067,26.67,-8.779,2.219
30.664606,31.15,-9.16,2.365
30.675145,35.7,-9.914,3.014
30.685684,39.9,-10.117,3.76
30.696223,44.17,-10.563,4.677
30.706762,48.3,-11.195,4.636
30.717301,52.22,-11.678,4.551
30.72784,55.93,-12.444,4.061
30.738379,59.36,-13.3,3.27
30.748918,62.02,-13.73,2.484
30.759457,64.96,-14.476,2.281
30.769987,67.76,-15.396,2.261
30.780517,70.28,-16.033,2.646
30.791047,72.24,-17.026,3.04
30.801577,73.99,-17.882,3.457
30.812107,75.39,-18.738,3.875
30.822637,76.79,-19.358,3.766
30.833167,77.35,-19.966,3.587
30.843697,76.86,-20.631,3.328
30.854227,75.81,-21.227,3.081
30.864757,73.99,-22.107,2.428
30.875287,72.03,-21.722,1.856
30.885817,69.79,-21.463,1.191
30.896368,67.41,-21.155,0.25
30.906919,65.38,-20.632,-0.297
30.91747,62.37,-20.478,-0.768
30.928021,59.57,-19.862,-1.441
30.938572,55.72,-19.213,-1.895
30.949123,51.24,-18.921,-2.341
30.959674,47.25,-18.56,-2.775
30.970225,43.12,-17.741,-2.986
30.980776,40.04,-16.804,-3.461
30.991327,37.59,-15.973,-3.741
31.001878,36.75,-14.911,-4.122
31.012429,35.63,-13.759,-4.203
31.022964,34.51,-12.563,-4.134
31.033499,33.04,-11.261,-4.26
31.044034,31.29,-9.911,-4.662
31.054569,29.54,-8.585,-4.926
31.065104,27.58,-6.91,-5.554
31.075639,25.62,-5.284,-5.907
31.086174,23.59,-3.95,-5.814
31.096709,22.19,-3.172,-5.393
31.107244,20.44,-2.097,-4.635
31.117779,18.76,-1.128,-3.682
31.128314,17.29,0.073,-2.83
31.138849,16.03,0.92,-2.397
31.149384,14.28,1.561,-1.999
31.159947,13.3,2.753,-1.505
31.17051,12.39,3.714,-0.909
31.181073,11.55,4.412,-0.43
31.191636,11.06,4.708,-0.094
31.202199,10.29,5.17,0.912
31.212762,9.73,5.292,1.431
31.223325,9.52,4.676,2.104
31.233888,9.31,4.278,2.745
31.244451,8.68,3.524,3.394
31.255014,7.91,2.896,4.136
31.265577,7.28,1.809,4.655
31.27614,6.16,0.771,4.898
31.286679,4.9,-0.498,5.243
31.297218,3.71,-1.491,5.637
31.307757,2.52,-2.862,5.75
31.318296,1.05,-3.624,6.042
31.328835,-0.63,-4.545,6.022
31.339374,-3.36,-5.04,6.006
31.349913,-7.28,-5.275,6.533
31.360452,-11.41,-4.918,6.525
31.370991,-16.38,-5.692,5.678
31.38153,-21.35,-5.214,4.98
31.392069,-25.2,-4.699,4.076
31.402608,-27.93,-4.817,3.131
31.413147,-30.17,-4.529,3.111
31.423686,-33.04,-4.334,3.216
31.434225,-35.56,-3.811,2.669
31.444741,-38.15,-3.24,1.845
31.455257,-40.11,-2.108,1.476
31.465773,-42.21,-1.079,0.876
31.476289,-43.68,0.58,0.742
31.486805,-46.62,1.914,0.835
31.497321,-49.07,3.674,0.932
31.507837,-52.36,5.442,1.386
31.518353,-54.95,7.636,1.844
31.528869,-56.7,9.578,2.115
31.539385,-57.68,11.577,2.468
31.549901,-58.45,13.07,2.873
31.560438,-58.52,14.639,3.647
31.570975,-57.82,16.403,3.319
31.581512,-56.35,17.591,3.031
31.592049,-54.95,18.418,3.177
31.602586,-53.55,19.213,3.103
31.613123,-52.01,19.817,3.708
31.62366,-49.91,19.87,4.214
31.634197,-48.02,19.886,4.928
31.644734,-46.06,19.68,4.892
31.655271,-44.38,19.505,5.074
31.665808,-42.84,18.402,4.88
31.676345,-41.58,17.539,4.941
31.686866,-40.39,16.468,4.965
31.697387,-39.13,15.333,4.552
31.707908,-38.5,14.664,4.718
31.718429,-37.45,13.654,4.398
31.72895,-36.19,12.526,4.341
31.739471,-35.21,11.436,4.078
31.749992,-34.16,10.393,3.539
31.760513,-33.32,9.266,3.482
31.771034,-32.48,8.066,3.839
31.781555,-31.64,7.523,4.099
31.792076,-30.52,6.314,4.099
31.802597,-29.82,5.142,3.892
31.813118,-29.33,4.542,4.071
31.823612,-28.91,4.092,4.204
31.834106,-27.72,3.723,4.282
31.8446,-26.6,3.05,3.665
31.855094,-25.27,2.494,3.994
31.865588,-23.87,2.361,4.752
31.876082,-22.61,1.781,5.219
31.886576,-21.28,1.448,5.089
31.89707,-19.81,1.242,5.052
31.907564,-18.83,0.54,5.0
31.918058,-18.27,-0.028,5.397
31.928552,-17.64,-0.526,5.807
31.939046,-16.59,-0.997,5.653
31.94954,-16.1,-1.2,5.191
31.960027,-15.68,-1.244,5.041
31.970514,-15.05,-1.451,5.004
31.981001,-14.56,-1.804,4.586
31.991488,-14.35,-2.388,4.27
32.001975,-14.0,-2.911,3.609
32.012462,-13.93,-3.134,2.859
32.022949,-13.58,-3.799,2.6
32.033436,-13.37,-4.047,1.988
32.043923,-13.09,-4.493,1.696
32.05441,-12.88,-4.712,1.728
32.064897,-12.39,-4.963,1.542
32.075384,-11.69,-5.385,1.112
32.085871,-11.06,-5.397,1.181
32.096358,-10.29,-5.247,1.136
32.10686,-9.66,-5.377,1.469
32.117362,-8.61,-5.093,1.874
32.127864,-8.05,-4.922,2.117
32.138366,-7.7,-4.716,2.154
32.148868,-7.0,-4.379,1.858
32.15937,-6.86,-4.193,1.606
32.169872,-5.95,-3.499,1.302
32.180374,-5.46,-2.83,1.136
32.190876,-5.46,-1.983,0.361
32.201378,-5.74,-1.318,-0.588
32.21186,-5.95,-1.042,-0.539
32.222342,-6.65,-0.377,-1.488
32.232824,-7.63,-0.077,-1.577
32.243306,-7.91,0.328,-1.861
32.253788,-8.68,0.608,-2.238
32.26427,-9.17,1.196,-2.348
32.274752,-8.96,1.532,-2.644
32.285234,-9.52,2.1,-3.042
32.295716,-9.52,2.538,-3.106
32.306198,-9.73,2.862,-3.334
32.31668,-9.87,3.264,-3.192
32.327162,-9.87,3.39,-3.098
32.337644,-9.73,3.917,-2.863
32.348136,-9.8,3.949,-2.644
32.358628,-10.36,3.742,-2.681
32.36912,-11.2,3.564,-3.281
32.379612,-11.55,2.883,-3.046
32.390104,-11.97,1.686,-3.114
32.400596,-12.95,-0.106,-3.431
32.411088,-13.37,-2.344,-4.038
32.42158,-13.86,-4.859,-4.695
32.432072,-14.14,-6.939,-4.991
32.442564,-13.93,-9.262,-5.116
32.453056,-13.79,-11.375,-5.631
32.463548,-13.44,-13.155,-6.016
32.474057,-13.23,-14.915,-6.113
32.484566,-12.74,-16.123,-6.113
32.495075,-12.6,-16.805,-5.877
32.505584,-12.04,-17.693,-5.679
32.516093,-11.83,-18.179,-5.338
32.526602,-11.62,-18.573,-5.123
32.537111,-11.27,-18.443,-4.247
32.54762,-10.85,-17.956,-3.379
32.558129,-10.5,-17.372,-3.063
32.568638,-9.94,-16.524,-2.629
32.579147,-9.87,-15.596,-2.252
32.589656,-10.08,-14.412,-2.115
32.600165,-9.66,-13.252,-1.839
32.61069,-8.96,-11.991,-1.332
32.621215,-8.54,-10.348,-0.972
32.63174,-8.05,-9.067,-0.177
32.642265,-7.35,-7.599,0.366
32.65279,-6.3,-6.269,0.885
32.663315,-5.32,-4.951,1.473
32.67384,-5.04,-3.463,2.304
32.684365,-4.27,-1.974,3.135
32.69489,-3.57,-0.401,3.483
32.705415,-2.73,1.164,3.475
32.71594,-2.31,2.385,3.406
32.726465,-1.89,3.48,3.244
32.736967,-1.12,4.485,2.781
32.747469,-0.42,4.996,2.303
32.757971,-0.63,5.535,2.469
32.768473,-0.21,5.864,3.024
32.778975,0.14,7.332,3.567
32.789477,0.28,8.922,4.63
32.799979,0.28,10.386,5.598
32.810481,0.49,12.531,6.332
32.820983,0.98,14.169,7.119
32.831485,1.33,15.39,8.258
32.841987,1.54,15.921,9.276
32.852489,1.61,16.428,10.431
32.862991,2.17,16.627,11.319
32.873492,2.38,16.153,11.591
32.883993,2.38,15.621,11.782
32.894494,2.38,14.879,12.362
32.904995,2.31,13.566,12.556
32.915496,2.59,12.288,12.544
32.925997,2.52,11.364,11.742
32.936498,3.01,9.734,11.312
32.946999,3.22,8.205,11.114
32.9575,3.71,6.692,10.42
32.968001,3.99,5.293,9.889
32.978502,4.13,4.531,8.973
32.989003,4.2,3.091,7.866
32.999514,4.9,2.089,6.694
33.010025,5.46,0.97,5.786
33.020536,5.74,-0.056,4.752
33.031047,5.67,-0.324,3.852
33.041558,5.88,-1.034,3.443
33.052069,6.02,-1.768,3.171
33.06258,5.67,-2.072,2.478
33.073091,5.67,-2.445,1.772
33.083602,5.74,-3.349,1.258
33.094113,5.46,-3.463,1.095
33.104624,5.39,-3.438,0.957
33.115135,5.25,-2.769,0.791
33.125646,5.11,-2.595,0.609
33.136156,5.18,-2.421,0.426
33.146666,5.32,-1.926,0.442
33.157176,5.39,-1.468,0.665
33.167686,5.46,-1.115,1.083
33.178196,5.6,-0.507,1.261
33.188706,5.46,-0.308,0.941
33.199216,5.81,0.418,0.856
33.209726,5.88,0.576,1.168
33.220236,6.16,0.608,1.387
33.230746,6.23,0.722,1.549
33.241256,6.23,0.495,1.225
33.251766,6.37,0.775,0.847
33.262265,6.86,0.604,0.604
33.272764,7.0,0.491,0.442
33.283263,7.14,0.665,0.259
33.293762,7.42,0.555,-0.329
33.304261,7.84,0.231,-0.101
33.31476,7.84,0.381,-0.146
33.325259,7.63,0.101,0.231
33.335758,7.63,0.26,0.543
33.346257,7.7,0.353,0.418
33.356756,7.56,0.077,0.369
33.367255,7.56,-0.049,0.276
33.377754,7.14,-0.073,0.414
33.388253,7.7,-0.243,0.17
33.398769,7.56,-0.495,-0.016
33.409285,7.84,-0.985,-0.458
33.419801,8.12,-1.05,-0.896
33.430317,8.33,-0.912,-0.872
33.440833,8.68,-0.819,-0.997
33.451349,9.1,-1.148,-1.553
33.461865,9.24,-1.273,-1.646
33.472381,9.17,-1.586,-1.488
33.482897,9.31,-2.214,-0.746
33.493413,9.31,-2.83,-0.073
33.503929,8.82,-3.467,0.313
33.514445,8.47,-4.339,0.017
33.524965,7.63,-5.227,0.216
33.535485,7.28,-6.358,0.585
33.546005,6.09,-6.703,0.524
33.556525,4.9,-7.226,-0.137
33.567045,4.34,-7.502,-1.394
33.577565,4.06,-8.09,-2.493
33.588085,4.13,-8.694,-3.097
33.598605,3.78,-9.136,-3.814
33.609125,3.78,-9.927,-4.167
33.619645,3.5,-10.58,-4.496
33.630165,2.52,-11.233,-4.824
33.640685,0.77,-12.218,-5.282
33.651205,-1.12,-12.908,-5.404
33.661733,-3.36,-13.747,-5.48
33.672261,-5.04,-14.599,-5.488
33.682789,-5.88,-15.641,-4.819
33.693317,-5.46,-16.245,-4.215
33.703845,-3.99,-16.419,-4.032
33.714373,-1.75,-16.825,-3.749
33.724901,1.19,-16.76,-3.311
33.735429,4.41,-16.889,-2.978
33.745957,7.77,-17.068,-2.37
33.756485,11.2,-17.307,-1.417
33.767013,14.0,-16.715,-0.744
33.777541,16.38,-15.904,-0.103
33.788059,18.34,-15.433,0.051
33.798577,19.46,-14.74,-0.253
33.809095,19.46,-13.933,-0.395
33.819613,18.76,-12.968,-0.225
33.830131,16.8,-11.658,0.006
33.840649,14.42,-10.499,-0.927
33.851167,11.9,-9.485,-2.241
33.861685,8.61,-8.305,-2.886
33.872203,5.74,-6.943,-3.357
33.882721,3.29,-5.759,-3.219
33.893239,1.61,-5.025,-2.947
33.903757,0.28,-3.407,-2.449
33.914275,-1.26,-2.421,-1.991
33.924788,-2.03,-1.537,-1.764
33.935301,-2.66,0.462,-1.411
33.945814,-3.22,1.719,-1.687
33.956327,-4.06,3.065,-1.663
33.96684,-4.48,4.31,-0.662
33.977353,-4.9,5.738,0.514
33.987866,-5.53,6.642,1.029
33.998379,-6.23,7.465,1.601
34.008892,-6.16,7.908,2.318
34.019405,-6.16,8.301,3.312
34.029918,-5.53,8.257,4.37
34.040431,-4.06,8.496,4.626
34.050944,-2.24,9.076,4.159
34.061453,0.07,9.384,3.218
34.071962,2.17,9.842,2.233
34.082471,4.34,9.817,1.162
34.09298,6.3,10.024,-0.01
34.103489,7.77,9.845,-0.61
34.113998,9.03,10.048,-0.147
34.124507,10.43,9.691,-0.139
34.135016,11.34,9.724,0.08
34.145525,12.67,9.789,0.518
34.156034,14.35,9.505,1.321
34.166543,15.89,9.181,1.548
34.177052,17.29,9.112,1.536
34.187561,18.62,9.079,2.525
34.198088,19.81,9.453,3.231
34.208615,20.65,10.694,4.658
34.219142,21.0,12.815,6.738
34.229669,21.28,15.637,8.87
34.240196,21.49,19.234,10.642
34.250723,21.77,22.47,11.639
34.26125,21.56,26.148,12.145
34.271777,21.84,29.417,12.153
34.282304,22.12,31.931,11.601
34.292831,21.49,34.737,10.603
34.303358,21.0,37.307,8.924
34.313885,20.44,39.245,7.204
34.3244,19.53,40.839,5.424
34.334915,17.64,42.302,3.976
34.34543,15.96,43.442,2.755
34.355945,14.0,44.471,2.155
34.36646,12.46,44.881,1.445
34.376975,10.5,45.586,1.072
34.38749,8.68,46.264,1.263
34.398005,6.93,46.827,1.291
34.40852,5.25,46.827,1.291
34.419035,3.78,46.308,1.413
34.42955,2.24,45.437,2.325
34.440065,1.61,44.739,3.055
34.45058,0.98,43.283,3.652
34.461079,1.54,41.645,4.074
34.471578,3.08,40.015,4.852
34.482077,3.78,37.87,6.535
34.492576,3.64,34.74,7.76
34.503075,3.22,31.784,7.595
34.513574,2.87,28.641,7.68
34.524073,2.52,25.706,7.802
34.534572,3.08,22.421,8.289
34.545071,2.94,19.42,7.973
34.55557,3.29,16.874,7.098
34.566069,3.43,13.484,6.571
34.576568,3.01,11.233,6.032
34.587067,3.08,8.167,5.278
34.597572,2.8,6.047,4.407
34.608077,2.31,4.773,3.969
34.618582,1.54,3.545,3.681
34.629087,1.54,2.064,3.207
34.639592,1.12,0.609,2.595
34.650097,0.91,-0.373,1.711
34.660602,0.77,-1.614,1.492
34.671107,0.49,-2.104,1.051
34.681612,-0.21,-2.611,1.103
34.692117,-0.28,-3.033,0.674
34.702622,-0.63,-3.483,0.807
34.713127,-0.84,-3.605,0.288
34.723609,-1.26,-2.863,-0.292
34.734091,-0.63,-2.121,-0.872
34.744573,0.21,-1.606,-1.776
34.755055,0.28,-1.087,-1.898
34.765537,0.77,-0.28,-2.04
34.776019,0.84,0.596,-2.17
34.786501,1.4,1.403,-2.312
34.796983,1.75,2.125,-1.971
34.807465,1.89,2.696,-1.586
34.817947,1.68,3.11,-1.513
34.828429,2.1,4.095,-1.055
34.838911,2.17,4.704,-0.877
34.849393,1.89,4.623,-0.82
34.859877,1.47,4.813,-0.289
34.870361,1.12,4.923,0.299
34.880845,0.21,4.89,1.289
34.891329,-0.14,4.213,2.307
34.901813,-0.28,3.812,2.165
34.912297,-0.56,2.847,1.995
34.922781,-0.42,2.19,2.092
34.933265,-0.63,1.351,2.015
34.943749,-0.14,0.175,2.234
34.954233,0.63,-0.77,2.352
34.964717,0.63,-1.666,2.194
34.975201,0.63,-2.141,2.466
34.985685,0.56,-2.729,2.575
34.996166,0.0,-2.875,2.194
35.006647,-0.77,-3.552,2.004
35.017128,-1.47,-4.172,1.894
35.027609,-1.33,-4.517,1.833
35.03809,-0.84,-4.793,1.785
35.048571,0.14,-4.574,1.752
35.059052,1.4,-4.744,1.509
35.069533,2.45,-5.648,0.994
35.080014,3.36,-6.078,1.416
35.090495,3.71,-6.038,1.992
35.100976,3.78,-6.2,2.105
35.111457,4.2,-6.67,1.951
35.121934,4.55,-7.1,2.373
35.132411,3.78,-7.984,2.146
35.142888,2.66,-8.823,2.069
35.153365,2.24,-9.48,2.167
35.163842,1.61,-10.109,1.7
35.174319,1.54,-11.013,1.186
35.184796,1.19,-11.918,0.671
35.195273,0.0,-13.791,0.411
35.20575,-2.1,-16.147,0.067
35.216227,-3.71,-19.063,-0.731
35.226704,-4.62,-21.703,-1.481
35.237181,-6.02,-24.407,-1.46
35.247641,-7.91,-27.197,-2.166
35.258101,-9.17,-30.072,-3.597
35.268561,-10.36,-32.42,-4.793
35.279021,-10.64,-34.513,-5.019
35.289481,-11.27,-36.54,-4.808
35.299941,-11.34,-37.728,-4.52
35.310401,-10.64,-38.949,-4.451
35.320861,-10.01,-39.326,-3.522
35.331321,-9.45,-38.6,-2.399
35.341781,-9.1,-37.48,-1.491
35.352241,-8.96,-36.134,-0.259
35.362701,-9.31,-33.665,0.248
35.373161,-9.8,-31.43,0.073
35.383637,-10.57,-29.532,0.195
35.394113,-10.92,-27.416,0.284
35.404589,-10.92,-25.198,0.604
35.415065,-10.43,-22.773,0.96
35.425541,-9.24,-20.782,0.956
35.436017,-8.26,-18.41,0.805
35.446493,-7.14,-16.577,0.489
35.456969,-6.23,-15.04,-0.164
35.467445,-5.11,-13.528,-0.679
35.477921,-4.27,-12.181,-0.655
35.488397,-3.36,-11.159,-0.404
35.498873,-2.52,-10.125,-0.222
35.509337,-1.68,-8.937,-0.51
35.519801,-1.26,-8.021,-0.064
35.530265,-1.47,-6.63,0.11
35.540729,-1.19,-5.523,-0.121
35.551193,-1.75,-4.769,0.439
35.561657,-2.03,-3.41,1.602
35.572121,-2.17,-2.201,2.81
35.582585,-2.17,-1.37,3.739
35.593049,-1.82,-1.029,4.225
35.603513,-1.12,-0.356,4.842
35.613977,-0.28,-0.121,5.523
35.624441,0.7,0.122,5.353
35.634905,2.03,-0.299,4.923
35.645401,3.64,-0.389,4.623
35.655897,4.76,-0.563,4.805
35.666393,5.53,-1.143,4.063
35.676889,5.67,-1.528,3.427
35.687385,5.74,-1.788,2.883
35.697881,5.39,-2.254,2.304
35.708377,4.76,-2.368,2.141
35.718873,4.41,-2.165,1.395
35.729369,3.92,-2.279,1.233
35.739865,2.94,-3.11,1.513
35.750361,2.03,-2.992,1.249
35.760857,1.54,-2.275,0.807
35.771345,0.98,-2.161,0.969
35.781833,0.56,-1.634,1.205
35.792321,0.21,-1.026,1.383
35.802809,-0.07,-0.868,1.695
35.813297,0.14,-0.486,1.549
35.823785,0.56,-0.085,1.691
35.834273,0.7,-0.186,1.46
35.844761,0.91,-0.292,1.654
35.855249,1.4,-0.223,1.667
35.865737,1.89,0.065,1.646
35.876225,1.89,-0.442,1.699
35.886713,2.24,-0.888,1.407
35.897201,2.52,-1.095,1.371
35.907689,2.73,-1.865,1.306
35.918184,2.8,-1.946,1.363
35.928679,2.94,-2.031,1.845
35.939174,2.45,-2.388,1.853
35.949669,2.1,-2.49,1.622
35.960164,1.61,-3.057,2.02
35.970659,1.4,-3.138,2.077
35.981154,1.05,-2.956,2.251
35.991649,1.05,-3.0,2.101
36.002144,0.77,-2.757,1.931
36.012639,0.91,-2.968,2.32
36.023134,0.49,-2.644,2.093
36.033651,0.56,-2.725,2.15
36.044168,0.56,-3.215,2.916
36.054685,0.35,-3.572,2.924
36.065202,0.28,-3.617,2.774
36.075719,0.07,-3.609,3.131
36.086236,0.14,-3.519,3.431
36.096753,0.77,-3.292,3.755
36.10727,0.98,-3.6,3.488
36.117787,1.19,-3.584,2.993
36.128304,1.19,-3.353,2.892
36.138821,1.61,-3.248,2.697
36.149338,1.82,-3.458,3.086
36.159855,2.24,-3.142,2.502
36.170353,2.38,-3.406,2.385
36.180851,2.38,-2.749,2.287
36.191349,2.45,-2.712,2.081
36.201847,2.24,-2.112,1.902
36.212345,2.1,-2.189,1.533
36.222843,1.96,-1.614,1.492
36.233341,2.03,-1.334,1.115
36.243839,1.82,-1.115,1.083
36.254337,1.47,-0.657,1.306
36.264835,1.4,-0.576,1.249
36.275333,1.68,-0.738,1.363
36.285831,1.61,-0.9,1.476
36.296329,1.68,-0.786,1.638
36.30684,1.82,-0.843,1.557
36.317351,1.68,-0.393,1.423
36.327862,1.54,-0.632,1.168
36.338373,1.47,-1.001,1.245
36.348884,1.54,-1.107,1.44
36.359395,1.89,-1.545,1.505
36.369906,1.96,-1.958,1.432
36.380417,2.45,-2.408,1.566
36.390928,2.66,-2.49,1.622
36.401439,2.66,-2.952,1.825
36.41195,3.01,-3.317,1.476
36.422461,3.15,-3.248,1.489
36.43297,3.92,-3.329,1.545
36.443479,4.13,-3.597,1.854
36.453988,4.13,-3.69,1.979
36.464497,4.06,-4.16,1.825
36.475006,3.64,-4.574,1.752
36.485515,3.43,-4.906,1.623
36.496024,3.22,-5.032,1.529
36.506533,3.08,-5.308,1.481
36.517042,2.66,-4.943,1.829
36.527551,2.17,-4.781,1.716
36.53806,2.17,-4.184,1.963
36.548569,1.75,-4.266,2.02
36.559078,1.82,-4.172,1.894
36.569587,1.54,-3.953,1.862
36.580075,1.54,-3.653,1.773
36.590563,1.54,-3.653,1.773
36.601051,1.33,-3.767,1.61
36.611539,1.96,-3.661,1.416
36.622027,1.96,-4.095,1.055
36.632515,1.89,-4.035,0.71
36.643003,1.75,-4.254,0.743
36.653491,1.68,-4.404,0.787
36.663979,1.68,-4.988,0.471
36.674467,1.26,-5.182,0.366
36.684955,1.33,-5.644,0.568
36.695443,1.47,-5.839,0.463
36.705938,1.61,-5.965,0.37
36.716433,1.82,-6.18,-0.023
36.726928,1.68,-6.675,-0.04
36.737423,1.47,-6.893,-0.007
36.747918,1.75,-7.202,-0.275
36.758413,1.47,-6.902,-0.364
36.768908,1.82,-6.914,-0.295
36.779403,1.54,-6.93,0.2
36.789898,1.68,-6.472,0.423
36.800393,2.03,-6.391,0.366
36.810888,2.38,-6.301,0.666
36.821383,2.38,-6.245,0.747
36.831907,2.45,-5.502,1.375
36.842431,2.24,-4.837,1.635
36.852955,2.66,-4.643,1.74
36.863479,2.52,-4.144,2.539
36.874003,1.96,-3.56,2.855
36.884527,2.1,-3.118,3.573
36.895051,2.38,-3.187,3.561
36.905575,2.31,-2.996,2.884
36.916099,2.45,-2.781,2.068
36.926623,2.52,-3.045,1.951
36.937147,2.59,-3.284,1.695
36.947671,2.59,-3.074,1.306
36.958195,2.87,-2.944,0.974
36.968729,2.8,-2.976,0.755
36.979263,2.66,-3.09,0.592
36.989797,3.08,-3.641,0.495
37.000331,3.01,-3.548,0.369
37.010865,3.01,-3.536,0.301
37.021399,3.08,-3.808,-0.174
37.031933,2.73,-4.923,-0.299
37.042467,2.59,-5.247,-0.072
37.053001,2.8,-5.608,0.362
37.063535,3.57,-6.127,0.483
37.074069,4.27,-5.977,0.439
37.084603,6.02,-6.241,0.321
37.095137,7.7,-6.322,0.378
37.105688,9.03,-6.139,0.552
37.116239,8.47,-6.078,0.208
37.12679,7.0,-5.855,-0.251
37.137341,5.6,-5.718,-0.226
37.147892,3.57,-5.742,-0.088
37.158443,1.4,-5.45,-0.534
37.168994,-1.47,-4.882,-0.932
37.179545,-3.5,-3.929,-0.693
37.190096,-4.48,-4.307,-0.973
37.200647,-3.71,-3.212,0.073
37.211198,-2.87,-2.218,0.888
37.221749,-1.26,-1.812,0.604
37.232287,0.14,-1.237,0.564
37.242825,0.7,-0.726,0.085
37.253363,1.26,-0.555,0.329
37.263901,1.89,-0.43,0.422
37.274439,3.08,-0.487,0.341
37.284977,2.17,-0.714,0.016
37.295515,2.59,-0.706,-0.835
37.306053,2.73,-0.288,-1.188
37.316591,3.01,-0.536,-1.8
37.327129,2.59,-0.901,-2.149
37.337667,3.15,-0.678,-2.607
37.348205,2.94,-0.483,-2.502
37.358743,3.5,0.166,-2.956
37.369281,3.22,0.158,-3.313
37.379817,3.71,0.401,-3.483
37.390353,4.13,0.64,-3.228
37.400889,4.69,0.754,-3.066
37.411425,5.11,1.435,-3.301
37.421961,4.9,1.553,-3.565
37.432497,4.83,1.743,-3.033
37.443033,5.04,2.315,-2.648
37.453569,5.04,2.684,-2.725
37.464105,5.39,2.741,-2.644
37.474641,5.32,2.753,-2.713
37.485177,5.39,2.36,-2.498
37.495713,5.53,2.323,-2.291
37.506221,5.39,2.035,-2.271
37.516729,5.11,1.634,-2.413
37.527237,5.25,0.944,-2.535
37.537745,5.25,0.957,-2.603
37.548253,4.97,0.417,-2.77
37.558761,4.76,0.717,-2.859
37.569269,4.13,0.478,-3.114
37.579777,3.78,0.146,-3.244
37.590285,3.57,0.052,-3.118
37.600793,3.43,0.02,-2.129
37.611301,2.94,-0.215,-1.602
37.621809,2.73,0.162,-1.322
37.632317,2.8,0.308,-0.941
37.642835,2.45,0.422,-0.779
37.653353,2.24,1.362,-0.471
37.663871,2.45,1.792,-0.892
37.674389,1.47,2.607,-0.678
37.684907,1.89,3.041,-0.317
37.695425,1.82,3.463,0.113
37.705943,2.1,3.804,0.6
37.716461,2.59,4.286,0.685
37.726979,3.29,4.526,0.94
37.737497,3.64,4.967,0.449
37.748015,4.34,5.547,-0.017
37.758533,4.69,6.172,-0.333
37.769045,4.55,6.901,-0.844
37.779557,3.78,7.274,-1.347
37.790069,3.29,7.936,-0.662
37.800581,2.73,8.345,-0.163
37.811093,2.66,8.54,-0.058
37.821605,2.38,8.625,0.668
37.832117,2.24,8.945,0.867
37.842629,1.89,9.298,1.284
37.853141,1.68,9.793,1.3
37.863653,1.47,10.401,1.479
37.874165,0.84,10.422,1.767
37.884677,0.56,10.616,1.872
37.895189,0.28,10.807,1.195
37.905722,0.28,10.928,0.505
37.916255,0.21,10.665,0.388
37.926788,0.0,10.421,0.558
37.937321,-0.07,9.89,0.749
37.947854,0.42,9.087,0.465
37.958387,0.35,7.846,0.246
37.96892,0.28,7.409,0.311
37.979453,0.42,6.269,0.324
37.989986,0.7,4.854,0.287
38.000519,0.56,3.942,0.624
38.011052,0.63,2.522,1.013
38.021585,0.63,0.933,1.16
38.03212,0.56,-0.166,1.748
38.042655,0.63,-1.459,2.23
38.05319,0.63,-2.51,2.543
38.063725,0.7,-3.507,3.362
38.07426,0.77,-4.387,3.918
38.084795,0.49,-4.711,4.145
38.09533,0.28,-5.153,4.636
38.105865,0.21,-5.688,5.252
38.1164,0.35,-5.761,5.666
38.126935,0.28,-5.924,5.779
38.13747,0.35,-6.029,5.974
38.148005,0.98,-6.341,6.132
38.15854,1.26,-6.402,6.477
38.169041,1.26,-6.361,5.844
38.179542,1.26,-5.944,5.491
38.190043,1.12,-5.246,4.761
38.200544,0.63,-5.218,4.198
38.211045,0.42,-4.768,4.064
38.221546,0.35,-4.35,3.711
38.232047,0.0,-3.965,3.139
38.242548,0.07,-3.848,2.876
38.253049,0.0,-3.073,2.515
38.26355,-0.07,-2.899,2.332
38.274051,-0.07,-2.725,2.15
38.284552,-0.07,-2.38,2.21
38.295053,0.0,-2.461,2.267
38.305548,0.14,-2.311,2.222
38.316043,0.21,-2.197,2.385
38.326538,0.0,-2.514,1.76
38.337033,-0.35,-2.481,1.979
38.347528,-0.14,-2.262,1.947
38.358023,0.14,-2.477,1.553
38.368518,0.0,-2.222,1.314
38.379013,0.42,-2.315,1.44
38.389508,0.21,-2.222,1.314
38.400003,-0.07,-1.975,1.926
38.410498,-0.28,-1.942,2.145
38.420993,-0.21,-1.8,1.744
38.431466,-0.28,-2.198,1.176
38.441939,-0.28,-2.052,1.557
38.452412,-0.42,-1.788,1.675
38.462885,-0.49,-1.902,1.513
38.473358,-0.49,-2.084,1.338
38.483831,-0.49,-2.388,1.853
38.494304,-0.63,-2.571,1.679
38.504777,-0.7,-3.102,1.87
38.51525,-0.14,-3.069,2.089
38.525723,0.0,-3.183,1.927
38.536196,0.49,-3.442,1.383
38.546669,0.7,-3.195,0.787
38.557142,1.12,-3.11,0.305
38.567606,1.12,-3.155,0.155
38.57807,1.68,-2.672,0.24
38.588534,1.82,-1.991,0.004
38.598998,1.75,-1.886,-0.19
38.609462,1.89,-1.642,-0.361
38.619926,2.1,-1.675,-0.58
38.63039,2.03,-1.691,-0.085
38.640854,1.61,-1.111,0.657
38.651318,1.19,-1.087,0.519
38.661782,1.05,-1.111,0.657
38.672246,1.12,-1.411,0.746
38.68271,0.77,-2.011,0.925
38.693189,0.7,-2.153,1.326
38.703668,0.56,-2.396,1.497
38.714147,0.42,-2.765,1.574
38.724626,0.49,-2.741,1.436
38.735105,0.63,-3.041,1.525
38.745584,0.49,-3.219,2.133
38.756063,0.35,-3.041,2.733
38.766542,0.21,-3.317,2.685
38.777021,-0.07,-3.268,2.409
38.7875,0.21,-3.406,2.385
38.797979,0.28,-3.232,2.202
38.808458,0.77,-3.081,2.158
38.818924,0.98,-3.025,2.239
38.82939,0.7,-2.887,2.263
38.839856,0.63,-3.017,2.596
38.850322,0.77,-3.106,2.296
38.860788,0.77,-2.566,2.462
38.871254,0.84,-2.716,2.506
38.88172,0.7,-2.785,2.494
38.892186,0.77,-2.51,2.543
38.902652,0.84,-2.449,2.198
38.913118,0.84,-2.542,2.324
38.923584,0.63,-2.66,2.587
38.93405,0.77,-2.27,2.798
38.944516,0.28,-2.348,2.429
38.955008,0.07,-2.42,2.843
38.9655,-0.14,-2.457,3.05
38.975992,-0.07,-2.607,3.094
38.986484,-0.07,-2.55,3.175
38.996976,-0.07,-2.546,2.75
39.007468,-0.07,-2.935,2.539
39.01796,0.0,-2.591,2.6
39.028452,0.0,-2.579,2.531
39.038944,0.14,-2.635,2.45
39.049436,-0.21,-2.453,2.624
39.059928,0.07,-2.266,2.372
39.07042,0.21,-2.092,2.19
39.080912,0.35,-2.137,2.04
39.091404,0.63,-1.861,2.089
39.101885,0.49,-2.019,1.776
39.112366,0.35,-1.845,1.594
39.122847,0.35,-1.926,1.651
39.133328,0.42,-1.618,1.918
39.143809,0.14,-1.602,1.424
39.15429,0.42,-1.61,1.067
39.164771,0.21,-1.249,1.841
39.175252,0.42,-1.086,1.728
39.185733,0.42,-0.912,1.545
39.196214,0.49,-0.714,1.225
39.206695,0.63,-0.888,1.407
39.217176,0.42,-0.673,1.801
39.227657,0.56,-0.616,1.882
39.238129,0.49,-0.786,1.638
39.248601,0.28,-1.237,1.772
39.259073,0.56,-1.561,1.999
39.269545,0.63,-1.873,2.158
39.280017,0.84,-1.861,2.089
39.290489,0.91,-1.902,1.513
39.300961,1.26,-2.052,1.557
39.311433,1.33,-1.91,1.156
39.321905,1.61,-1.906,0.73
39.332377,1.68,-1.715,1.261
39.342849,1.96,-1.508,1.298
39.353321,2.24,-1.658,1.342
39.363793,1.89,-1.22,1.277
39.374286,2.17,-1.281,1.622
39.384779,1.96,-0.993,1.602
39.395272,1.61,-0.636,1.594
39.405765,1.33,-0.304,1.723
39.416258,1.26,-0.336,1.504
39.426751,1.26,-0.855,1.626
39.437244,1.47,-0.936,1.683
39.447737,1.47,-1.2,1.565
39.45823,1.33,-1.281,1.622
39.468723,1.54,-1.407,1.529
39.479216,1.47,-1.82,1.456
39.489709,1.33,-1.934,1.294
39.500211,1.33,-2.06,1.201
39.510713,1.05,-1.869,1.732
39.521215,0.84,-1.938,1.72
39.531717,1.33,-2.019,1.776
39.542219,1.19,-1.975,1.926
39.552721,1.26,-1.975,1.926
39.563223,1.61,-1.918,2.007
39.573725,1.68,-1.824,1.882
39.584227,1.68,-1.739,1.399
39.594729,1.61,-1.164,1.359
39.605231,1.75,-1.646,1.273
39.615733,1.68,-1.991,1.213
39.626242,1.89,-1.877,1.375
39.636751,2.03,-1.877,1.375
39.64726,1.82,-1.683,1.48
39.657769,1.68,-1.67,1.411
39.668278,1.82,-1.715,1.261
39.678787,1.54,-1.512,1.724
39.689296,0.98,-1.614,1.492
39.699805,1.05,-1.602,1.424
39.710314,0.77,-1.646,1.273
39.720823,0.7,-1.646,1.273
39.731332,0.7,-1.403,1.103
39.741841,0.63,-1.553,1.148
39.75235,0.56,-1.358,1.253
39.762859,0.07,-1.573,0.86
39.773368,0.35,-1.127,1.152
39.783877,0.28,-1.553,1.148
39.794386,0.21,-1.472,1.091
39.804873,-0.07,-1.666,0.986
39.81536,0.07,-1.253,1.059
39.825847,0.21,-1.107,1.44
39.836334,0.35,-1.095,1.371
39.846821,0.35,-1.553,1.148
39.857308,0.56,-1.727,1.33
39.867795,0.98,-1.82,1.456
39.878282,1.54,-1.95,1.789
39.888769,1.96,-2.068,2.052
39.899256,2.1,-2.587,2.174
39.909771,2.52,-2.931,2.113
39.920286,2.73,-3.102,1.87
39.930801,3.01,-2.903,1.549
39.941316,2.31,-3.081,2.158
39.951831,2.1,-3.146,1.72
39.962346,1.61,-3.536,1.509
39.972861,1.12,-3.467,1.521
39.983376,0.77,-3.175,1.075
39.993891,0.91,-3.13,1.225
40.004406,1.05,-2.932,0.905
40.014921,1.26,-2.461,1.059
40.025436,1.68,-2.108,1.476
40.035942,1.96,-2.262,1.947
40.046448,2.52,-2.494,2.048
40.056954,3.01,-2.084,2.547
40.06746,2.73,-2.311,3.431
40.077966,2.52,-2.493,3.257
40.088472,2.87,-2.108,2.685
40.098978,2.73,-2.129,2.397
40.109484,2.94,-1.699,1.975
40.11999,2.94,-1.387,1.817
40.130496,2.45,-1.257,1.484
40.141002,2.1,-0.831,1.488
40.151508,1.82,-0.62,1.099
40.162014,1.05,0.171,1.452
40.172514,0.84,0.337,0.912
40.183014,0.63,0.337,0.912
40.193514,0.63,0.568,0.811
40.204014,0.14,0.669,1.042
40.214514,-0.14,1.188,0.92
40.225014,-0.14,0.957,1.022
40.235514,-0.63,0.625,0.892
40.246014,-0.42,0.608,1.387
40.256514,-0.28,0.171,1.452
40.267014,0.21,-0.292,1.654
40.277514,0.42,-0.474,1.48
40.288014,0.91,-0.458,0.985
40.298514,1.33,-0.839,1.131
40.309034,1.19,-0.726,1.294
40.319554,0.98,-0.786,1.638
40.330074,0.7,-0.758,2.283
40.340594,0.21,-0.92,2.397
40.351114,0.21,-0.644,2.445
40.361634,0.28,-0.746,2.214
40.372154,-0.14,-0.044,2.267
40.382674,-0.63,0.098,1.865
40.393194,-0.98,-0.45,1.342
40.403714,-1.19,-0.267,1.517
40.414234,-1.75,-0.235,1.736
40.424754,-2.24,0.122,1.727
40.435261,-2.31,0.11,1.796
40.445768,-2.59,0.073,2.003
40.456275,-2.45,0.28,2.04
40.466782,-1.54,0.073,2.003
40.477289,-0.7,0.357,2.409
40.487796,0.14,0.081,2.36
40.498303,0.63,-0.296,2.08
40.50881,0.49,-0.709,2.007
40.519317,0.56,-1.03,1.809
40.529824,0.7,-1.443,1.736
40.540331,0.77,-1.82,1.456
40.550838,0.7,-2.084,1.338
40.561345,1.12,-2.254,1.095
40.57186,1.12,-2.684,1.517
40.582375,1.19,-2.36,1.29
40.59289,1.12,-2.291,1.302
40.603405,0.77,-2.36,1.29
40.61392,0.56,-2.267,1.164
40.624435,0.49,-2.06,1.201
40.63495,0.35,-1.752,1.468
40.645465,0.14,-1.683,1.48
40.65598,-0.07,-1.845,1.594
40.666495,-0.21,-2.056,1.983
40.67701,-0.07,-2.169,1.821
40.687525,0.21,-1.902,1.513
40.69804,0.21,-1.889,1.444
40.708555,0.42,-2.056,1.983
40.719076,0.49,-2.193,1.959
40.729597,0.63,-2.185,2.316
40.740118,0.91,-2.392,2.279
40.750639,0.77,-2.311,2.222
40.76116,1.05,-2.145,1.683
40.771681,0.77,-2.202,1.602
40.782202,1.05,-1.792,2.101
40.792723,1.33,-1.902,1.513
40.803244,1.47,-1.715,1.261
40.813765,1.19,-1.683,1.48
40.824286,1.12,-1.326,1.472
40.834807,0.91,-1.143,1.646
40.845354,0.42,-1.18,1.853
40.855901,0.63,-1.35,1.61
40.866448,0.63,-1.338,1.541
40.876995,0.42,-1.387,1.817
40.887542,0.21,-1.52,2.575
40.898089,0.07,-1.719,2.896
40.908636,0.21,-1.682,2.689
40.919183,0.77,-1.622,2.344
40.92973,0.77,-1.768,1.963
40.940277,0.91,-1.743,1.825
40.950824,1.26,-1.569,1.642
40.961371,1.47,-1.476,1.517
40.971926,1.4,-1.326,1.472
40.982481,1.19,-1.314,1.403
40.993036,1.19,-1.123,1.934
41.003591,1.33,-1.062,1.59
41.014146,1.05,-0.373,1.711
41.024701,0.91,-0.316,1.792
41.035256,0.84,-0.247,1.805
41.045811,0.49,-0.454,1.768
41.056366,0.56,-0.466,1.837
41.066921,0.7,-0.466,1.837
41.077476,0.42,-0.284,2.011
41.088031,0.07,-0.628,1.951
41.098586,0.21,-0.539,2.251
41.109141,0.21,-0.88,1.764
41.119696,0.28,-0.924,1.614
41.130258,0.14,-1.107,1.44
41.14082,-0.14,-1.042,1.878
41.151382,-0.49,-1.289,2.474
41.161944,-0.35,-1.326,2.681
41.172506,0.0,-1.747,2.251
41.183068,-0.14,-1.828,2.308
41.19363,-0.42,-2.015,2.559
41.204192,-0.56,-2.258,2.729
41.214754,-0.42,-2.579,2.531
41.225316,-0.42,-2.972,2.746
41.235878,-0.42,-3.004,2.527
41.24644,-0.21,-3.442,2.592
41.257013,-0.07,-3.548,2.786
41.267586,0.28,-3.767,2.819
41.278159,0.28,-3.556,2.429
41.288732,0.42,-3.325,2.328
41.299305,0.35,-3.394,2.316
41.309878,0.49,-3.037,2.308
41.320451,0.42,-2.494,2.048
41.331024,0.77,-2.234,1.383
41.341597,0.7,-2.003,1.282
41.35217,0.91,-1.196,1.14
41.362743,0.7,-1.301,1.334
41.373316,0.77,-1.464,1.448
41.383897,1.05,-1.237,1.772
41.394478,1.05,-0.847,1.983
41.405059,0.7,-0.847,1.983
41.41564,0.91,-0.855,1.626
41.426221,1.33,-0.868,1.695
41.436802,1.4,-0.9,1.476
41.447383,1.4,-1.07,1.233
41.457964,1.61,-1.062,1.59
41.468545,1.61,-1.545,1.505
41.479126,1.61,-1.622,1.136
41.489707,1.82,-1.841,1.168
41.500288,1.68,-1.679,1.055
41.510869,1.68,-1.946,1.363
41.521441,1.61,-2.291,1.302
41.532013,1.68,-2.327,1.509
41.542585,1.47,-2.457,1.841
41.553157,1.47,-2.408,1.566
41.563729,1.61,-2.477,1.553
41.574301,1.54,-2.246,1.452
41.584873,2.03,-2.465,1.484
41.595445,1.82,-1.983,1.57
41.606017,1.68,-2.133,1.614
41.616589,1.54,-2.108,1.476
41.627161,1.54,-1.877,1.375
41.637733,1.26,-1.8,1.744
41.648305,1.19,-1.468,1.874
41.658877,1.12,-1.391,2.243
41.669444,0.91,-1.399,1.886
41.680011,1.12,-1.131,1.578
41.690578,1.05,-1.431,1.667
41.701145,0.21,-1.411,1.955
41.711712,0.42,-1.431,1.667
41.722279,0.35,-1.581,1.711
41.732846,0.35,-2.019,1.776
41.743413,0.35,-2.275,2.016
41.75398,0.49,-2.494,2.048
41.764547,0.84,-2.242,2.235
41.775114,1.05,-2.121,1.545
41.785662,1.47,-2.011,0.925
41.79621,1.68,-1.63,0.779
41.806758,1.61,-1.318,0.621
41.817306,2.1,-1.099,0.588
41.827854,2.24,-0.924,0.406
41.838402,1.75,-0.194,1.103
41.84895,1.47,0.057,1.289
41.859498,1.61,0.162,1.095
41.870046,1.68,0.166,0.669
41.880594,1.26,0.276,1.257
41.891142,0.98,0.081,1.152
41.90169,0.77,-0.012,1.277
41.912238,0.77,-0.328,1.861
41.922786,0.49,-0.649,1.663
41.933286,0.21,-1.005,1.671
41.943786,-0.07,-1.086,1.728
41.954286,0.28,-1.35,1.61
41.964786,0.0,-1.638,1.63
41.975286,-0.14,-1.764,1.537
41.985786,-0.07,-2.108,1.476
41.996286,0.0,-1.995,1.638
42.006786,-0.07,-1.76,2.32
42.017286,-0.14,-1.922,2.433
42.027786,-0.14,-1.678,2.263
42.038286,0.42,-1.691,2.332
42.048786,0.56,-1.585,2.137
42.059275,0.84,-1.423,2.024
42.069764,1.05,-1.63,1.987
42.080253,1.12,-1.293,1.691
42.090742,1.05,-1.168,1.784
42.101231,0.84,-1.297,2.117
42.11172,0.84,-1.192,1.922
42.122209,0.7,-0.786,1.638
42.132698,0.28,-0.693,1.513
42.143187,-0.14,-0.284,2.011
42.153676,-0.7,-0.389,2.206
42.164165,-0.98,-0.194,2.311
42.174654,-0.91,-0.117,2.68
42.185119,-0.84,-0.154,2.887
42.195584,-0.63,-0.154,2.887
42.206049,-0.84,-0.474,2.689
42.216514,-0.63,-0.936,2.891
42.226979,-0.7,-1.212,2.843
42.237444,-0.42,-1.395,2.668
42.247909,-0.14,-1.739,2.608
42.258374,0.0,-2.129,2.397
42.268839,-0.14,-2.279,2.441
42.279304,-0.07,-2.335,2.36
42.289769,0.28,-2.161,2.178
42.300234,0.42,-1.828,2.308
42.310699,0.49,-1.816,2.239
42.321164,0.49,-1.642,2.056
42.331629,0.21,-1.435,2.093
42.342062,0.35,-1.427,2.449
42.352495,0.28,-1.508,2.506
42.362928,0.28,-0.981,2.741
42.373361,0.21,-1.054,3.155
42.383794,0.14,-1.143,2.855
42.394227,0.14,-1.313,2.612
42.40466,0.42,-1.334,2.324
42.415093,0.77,-1.342,1.967
42.425526,0.91,-1.488,1.586
42.435959,1.05,-1.119,1.509
42.446392,1.26,-1.046,1.095
42.4568,1.05,-0.985,0.75
42.467208,1.26,-1.054,0.738
42.477616,1.26,-0.823,0.637
42.488024,1.19,-0.539,1.042
42.498432,1.33,-0.341,0.722
42.50884,1.4,0.13,0.876
42.519248,1.54,-0.016,0.495
42.529656,1.61,0.325,0.981
42.540064,1.68,0.54,1.375
42.550472,1.61,0.329,1.764
42.56088,1.68,0.341,1.695
42.571288,1.54,-0.121,1.898
42.581696,1.33,-0.158,2.105
42.592123,1.54,-0.535,1.825
42.60255,1.68,-0.9,1.476
42.612977,1.68,-0.888,1.407
42.623404,1.96,-0.953,0.969
42.633831,2.1,-1.306,0.552
42.644258,2.24,-0.912,0.337
42.654685,2.1,-0.787,0.43
42.665112,2.24,-0.831,0.28
42.675539,1.89,-0.547,0.685
42.685966,2.17,-0.661,0.523
42.696393,1.68,-0.523,0.547
42.70682,1.68,-0.113,1.046
42.717247,1.26,0.312,1.05
42.727674,1.33,0.442,0.718
42.738101,1.33,0.268,0.9
42.748528,1.47,0.118,0.945
42.758955,1.33,0.207,1.245
42.769382,1.33,-0.316,1.792
42.779809,1.12,-0.555,1.537
42.790236,1.33,-0.705,1.582
42.800663,1.4,-0.795,1.281
42.81109,1.4,-1.095,1.371
42.821517,1.33,-1.042,1.878
42.831944,1.19,-1.054,1.947
42.842371,1.26,-1.111,1.865
42.852818,1.4,-1.147,2.072
42.863265,1.47,-1.273,1.979
42.873712,1.19,-1.143,1.646
42.884159,1.61,-1.188,1.496
42.894606,2.1,-1.679,1.055
42.905053,2.24,-1.334,1.115
42.9155,2.17,-1.338,1.541
42.925947,1.96,-1.626,1.561
42.936394,1.82,-1.305,1.76
42.946841,1.61,-1.387,1.817
42.957288,1.68,-1.305,1.76
42.967735,1.47,-1.078,2.084
42.978182,1.26,-1.293,1.691
42.98861,0.98,-0.904,1.902
42.999038,0.63,-1.366,2.105
43.009466,0.28,-1.366,2.105
43.019894,0.35,-1.18,1.853
43.030322,0.35,-1.378,2.174
43.04075,0.28,-1.484,2.368
43.051178,0.21,-1.577,2.494
43.061606,0.56,-1.703,2.401
43.072034,0.21,-1.65,2.908
43.082462,0.21,-1.662,2.977
43.09289,0.07,-1.642,3.264
43.103318,-0.07,-1.569,2.851
43.113766,0.14,-1.443,2.944
43.124214,0.28,-1.585,3.346
43.134662,0.35,-2.031,3.054
43.14511,0.56,-1.755,3.102
43.155558,0.49,-1.881,3.009
43.166006,0.7,-2.12,2.754
43.176454,0.98,-1.946,2.571
43.186902,1.19,-2.072,2.478
43.19735,1.61,-1.768,1.963
43.207798,1.33,-2.364,1.716
43.218246,1.47,-2.043,1.914
43.228694,1.61,-1.824,1.882
43.239166,1.68,-1.407,1.529
43.249638,1.96,-1.233,1.346
43.26011,2.03,-1.326,1.472
43.270582,2.24,-1.395,1.46
43.281054,2.17,-0.486,1.549
43.291526,1.96,-0.211,1.598
43.301998,2.17,-0.75,1.432
43.31247,2.17,-0.782,1.213
43.322942,2.1,-0.588,1.318
43.333414,2.31,-0.563,1.18
43.343886,2.52,-0.689,1.087
43.354358,2.52,-0.864,1.269
43.364851,1.96,-0.932,1.257
43.375344,1.82,-1.184,1.071
43.385837,1.61,-1.103,1.014
43.39633,1.75,-1.07,1.233
43.406823,1.75,-1.439,1.31
43.417316,1.47,-1.764,1.537
43.427809,0.98,-2.238,1.809
43.438302,0.84,-2.858,2.908
43.448795,0.77,-3.252,3.123
43.459288,0.7,-3.458,3.086
43.469781,0.49,-3.398,2.742
43.480274,0.63,-3.098,2.652
43.490767,0.91,-2.984,2.815
43.501303,1.33,-2.339,2.786
43.511839,1.54,-2.035,2.271
43.522375,1.54,-1.784,2.458
43.532911,1.4,-1.382,2.599
43.543447,1.68,-1.163,2.567
43.553983,1.89,-0.815,2.202
43.564519,1.82,-0.701,2.364
43.575055,1.82,-0.34,1.93
43.585591,1.82,-0.166,1.748
43.596127,1.75,-0.166,1.748
43.606663,1.89,-0.511,1.687
43.617199,1.75,-0.811,1.776
43.627758,1.75,-1.078,2.084
43.638317,1.89,-0.973,1.89
43.648876,1.4,-1.318,1.829
43.659435,1.47,-1.662,1.768
43.669994,1.75,-1.65,1.699
43.680553,1.61,-1.812,1.813
43.691112,1.26,-2.161,2.178
43.701671,1.05,-2.092,2.19
43.71223,1.12,-2.165,2.604
43.722789,0.91,-2.315,2.648
43.733348,1.05,-2.777,2.851
43.743907,1.05,-2.502,2.9
43.754466,1.4,-3.098,2.652
43.765047,1.33,-3.167,2.64
43.775628,1.47,-3.256,2.34
43.786209,1.54,-3.523,2.648
43.79679,1.4,-3.252,3.123
43.807371,1.33,-2.964,3.102
43.817952,1.19,-2.907,3.184
43.828533,1.05,-2.72,2.932
43.839114,0.98,-2.355,3.281
43.849695,0.7,-1.983,2.778
43.860276,0.63,-1.946,2.571
43.870857,0.56,-1.22,2.486
43.881438,0.21,-0.839,2.34
43.892011,0.07,-0.746,2.214
43.902584,0.07,-0.827,2.271
43.913157,0.21,-0.734,2.145
43.92373,0.0,-0.62,2.307
43.934303,0.35,-0.454,1.768
43.944876,0.49,-0.385,1.78
43.955449,0.28,-0.393,1.423
43.966022,0.63,-0.539,1.042
43.976595,0.63,-0.296,0.872
43.987168,0.42,-0.19,0.677
43.997741,0.21,-0.316,0.584
44.008314,0.7,-0.203,0.746
44.018887,0.49,-0.215,0.815
44.029475,0.42,-0.308,0.941
44.040063,0.7,-0.203,0.746
44.050651,0.21,-0.122,0.689
44.061239,0.14,-0.251,1.022
44.071827,0.28,-0.008,0.852
44.082415,-0.07,0.097,0.657
44.093003,0.0,0.325,0.981
44.103591,0.14,-0.02,0.92
44.114179,-0.21,-0.126,1.115
44.124767,-0.42,0.15,1.164
44.135355,-0.21,0.337,0.912
44.145943,-0.42,0.118,0.945
44.1565,-0.98,0.272,0.474
44.167057,-1.33,0.341,0.487
44.177614,-1.68,0.292,0.762
44.188171,-1.4,0.093,1.083
44.198728,-1.47,-0.012,1.277
44.209285,-1.26,0.15,1.164
44.219842,-0.98,0.138,1.233
44.230399,-0.91,0.199,0.888
44.240956,-0.84,0.256,0.969
44.251513,-0.63,-0.15,1.253
44.26207,-0.28,-0.531,1.399
44.272627,-0.49,-0.531,1.399
44.283184,0.07,-0.462,1.411
44.29373,-0.07,-1.083,1.302
44.304276,-0.07,-0.908,1.119
44.314822,0.42,-1.103,1.014
44.325368,0.42,-1.058,1.164
44.335914,0.7,-0.787,0.43
44.34646,0.98,-0.442,0.491
44.357006,1.26,-0.243,0.17
44.367552,0.91,0.215,0.393
44.378098,1.26,0.134,0.45
44.388644,0.91,0.43,0.787
44.39919,0.77,0.373,0.706
44.409736,0.56,0.556,0.88
44.420251,0.49,0.783,1.204
44.430766,0.42,0.965,1.379
44.441281,0.77,0.657,1.111
44.451796,0.63,0.596,1.456
44.462311,0.63,0.264,1.326
44.472826,0.7,-0.04,0.633
44.483341,0.56,-0.166,0.539
44.493856,0.21,-0.835,0.706
44.504371,0.49,-0.993,0.393
44.514886,0.35,-1.071,0.024
44.525401,0.56,-1.233,0.138
44.535916,0.42,-1.407,0.321
44.546431,0.21,-1.403,1.103
44.556946,0.28,-1.415,1.172
44.567426,0.42,-1.415,1.172
44.577906,0.63,-1.107,1.44
44.588386,0.7,-0.831,1.488
44.598866,0.77,-0.612,1.456
44.609346,1.05,-0.47,1.054
44.619826,1.05,-0.158,0.896
44.630306,1.54,-0.17,0.965
44.640786,1.75,-0.093,1.334
44.651266,1.68,-0.239,0.953
44.661746,1.61,-0.276,1.16
44.672226,1.68,-0.714,1.225
44.682706,1.47,-0.486,1.549
44.69318,1.54,-0.486,1.549
44.703654,1.4,-0.957,1.395
44.714128,1.54,-1.119,1.509
44.724602,1.82,-1.346,1.184
44.735076,1.54,-1.245,1.415
44.74555,1.75,-1.496,1.229
44.756024,1.54,-1.16,0.933
44.766498,1.4,-0.916,0.762
44.776972,0.77,-0.491,0.766
44.787446,0.49,-0.547,0.685
44.79792,0.63,-0.799,0.499
44.808394,0.91,-0.624,0.316
44.818872,1.19,-0.487,0.341
44.82935,0.63,-0.178,0.608
44.839828,1.05,0.085,0.726
44.850306,0.91,-0.194,1.103
44.860784,0.77,-0.194,1.103
44.871262,1.05,-0.77,1.144
44.88174,1.12,-0.77,1.144
44.892218,1.33,-1.05,1.521
44.902696,1.05,-1.257,1.484
44.913174,0.98,-1.269,1.553
44.923652,1.12,-1.889,1.444
44.93413,1.05,-1.971,1.501
44.944608,1.19,-2.007,1.707
44.95506,0.84,-2.189,1.533
44.965512,0.77,-1.739,1.399
44.975964,0.77,-2.076,1.695
44.986416,0.7,-1.752,1.468
44.996868,0.77,-1.472,1.091
45.00732,0.49,-1.172,1.002
45.017772,0.63,-0.904,0.694
45.028224,0.49,-0.774,0.361
45.038676,1.12,-0.487,0.341
45.049128,1.12,-0.499,0.41
45.05958,0.7,0.053,0.507
45.070032,0.84,0.446,0.292
45.080484,0.49,0.446,0.292
45.090933,0.98,0.32,0.199
45.101382,1.05,0.989,0.032
45.111831,1.19,0.539,0.166
45.12228,0.91,0.341,0.487
45.132729,0.63,0.369,1.131
45.143178,0.7,0.321,1.407
45.153627,0.84,-0.393,1.423
45.164076,1.26,-0.746,1.006
45.174525,1.61,-0.953,0.969
45.184974,2.03,-1.01,0.888
45.195423,2.31,-1.123,0.726
45.205872,2.31,-1.143,0.438
45.216341,2.66,-1.204,0.783
45.22681,2.66,-0.616,0.673
45.237279,2.45,-0.426,1.204
45.247748,2.31,-0.162,1.322
45.258217,2.1,-0.393,1.423
45.268686,1.82,-0.774,1.569
45.279155,2.03,-0.405,1.492
45.289624,1.96,-0.243,1.379
45.300093,1.89,-0.381,1.354
45.310562,1.96,-0.393,1.423
45.321031,2.1,-0.624,1.525
45.3315,1.82,-0.555,1.537
45.341969,1.75,-0.657,1.306
45.352423,1.75,-0.689,1.087
45.362877,1.54,-0.803,0.925
45.373331,1.47,-1.354,0.827
45.383785,1.47,-1.383,1.391
45.394239,1.19,-1.09,2.153
45.404693,1.26,-1.415,2.38
45.415147,1.33,-1.334,2.324
45.425601,1.26,-1.358,2.462
45.436055,1.61,-1.346,2.393
45.446509,1.96,-1.63,1.987
45.456963,1.96,-1.192,1.922
45.467417,1.96,-0.88,1.764
45.477871,2.03,-1.074,1.659
45.488356,2.1,-1.107,1.44
45.498841,2.1,-1.074,1.659
45.509326,2.38,-1.269,1.553
45.519811,2.03,-1.123,1.934
