Time,AccelerometerX,AccelerometerY,AccelerometerZ 
-0.051577,-0.039,-10.068,2.208
-0.041687,-0.039,-10.089,2.324
-0.031797,-0.039,-10.114,2.24
-0.021907,-0.039,-10.121,2.278
-0.012017,0.0,-10.187,2.426
-0.002127,0.039,-10.166,2.31
0.007763,0.039,-10.141,2.394
0.017653,-0.039,-10.102,2.401
0.027543,-0.039,-10.116,2.478
0.037433,-0.078,-10.102,2.401
0.047323,-0.118,-10.141,2.394
0.057213,-0.118,-10.082,2.285
0.067103,-0.118,-10.068,2.208
0.076993,-0.157,-10.016,2.137
0.086883,-0.157,-9.971,2.106
0.096773,-0.118,-9.887,2.081
0.106663,-0.118,-9.873,2.003
0.116553,-0.078,-9.907,2.196
0.126457,-0.039,-9.907,2.196
0.136361,-0.078,-9.887,2.081
0.146265,-0.118,-9.887,2.081
0.156169,-0.118,-9.893,2.119
0.166073,-0.157,-9.855,2.126
0.175977,-0.157,-9.834,2.01
0.185881,-0.157,-9.834,2.01
0.195785,-0.118,-9.828,1.971
0.205689,-0.118,-9.821,1.933
0.215593,-0.157,-9.873,2.003
0.225497,-0.118,-9.834,2.01
0.235401,-0.118,-9.803,2.056
0.245305,-0.157,-9.828,1.971
0.255195,-0.157,-9.825,1.733
0.265085,-0.118,-9.905,1.958
0.274975,-0.157,-9.878,1.803
0.284865,-0.157,-9.839,1.81
0.294755,-0.118,-9.846,1.849
0.304645,-0.157,-9.8,1.817
0.314535,-0.118,-9.709,1.753
0.324425,-0.157,-9.703,1.715
0.334315,-0.157,-9.664,1.722
0.344205,-0.157,-9.664,1.722
0.354095,-0.235,-9.762,1.824
0.363985,-0.196,-9.839,1.81
0.373875,-0.196,-9.909,1.758
0.383765,-0.157,-9.871,1.765
0.393643,-0.078,-9.819,1.694
0.403521,-0.078,-9.787,1.74
0.413399,-0.118,-9.678,1.799
0.423277,-0.078,-9.716,1.792
0.433155,-0.118,-9.691,1.876
0.443033,-0.157,-9.607,1.851
0.452911,-0.196,-9.582,1.935
0.462789,-0.235,-9.582,1.935
0.472667,-0.196,-9.603,2.051
0.482545,-0.196,-9.628,1.967
0.492423,-0.196,-9.718,2.031
0.502301,-0.196,-9.803,2.056
0.512179,-0.196,-9.848,2.087
0.522072,-0.157,-9.966,2.306
0.531965,-0.118,-9.978,2.144
0.541858,-0.078,-10.009,2.099
0.551751,-0.039,-10.073,2.008
0.561644,0.039,-10.08,2.047
0.571537,0.078,-10.08,2.047
0.58143,0.118,-10.034,2.015
0.591323,0.235,-9.989,1.983
0.601216,0.275,-9.996,2.021
0.611109,0.275,-9.95,1.99
0.621002,0.275,-9.93,1.874
0.630895,0.314,-9.859,1.926
0.640788,0.353,-9.814,1.894
0.650716,0.353,-9.814,1.894
0.660644,0.314,-9.737,1.908
0.670572,0.314,-9.73,1.869
0.6805,0.275,-9.673,1.999
0.690428,0.275,-9.621,1.928
0.700356,0.196,-9.628,1.967
0.710284,0.118,-9.628,1.967
0.720212,0.118,-9.628,1.967
0.73014,0.078,-9.68,2.037
0.740068,0.078,-9.725,2.069
0.749996,0.118,-9.821,1.933
0.759924,0.118,-9.943,1.951
0.769852,0.157,-9.975,1.906
0.77978,0.196,-10.066,1.969
0.789696,0.275,-10.15,1.994
0.799612,0.275,-10.15,1.994
0.809528,0.314,-10.162,1.833
0.819444,0.353,-10.13,1.878
0.82936,0.353,-10.105,1.962
0.839276,0.314,-10.0,1.822
0.849192,0.235,-9.853,1.887
0.859108,0.235,-9.757,2.024
0.869024,0.196,-9.691,1.876
0.87894,0.157,-9.639,1.806
0.888856,0.118,-9.6,1.812
0.898772,0.039,-9.582,1.935
0.908688,0.0,-9.55,1.981
0.918604,-0.078,-9.544,1.942
0.928509,-0.078,-9.616,2.128
0.938414,-0.157,-9.68,2.037
0.948319,-0.196,-9.746,2.185
0.958224,-0.196,-9.828,1.971
0.968129,-0.235,-9.866,1.965
0.978034,-0.235,-9.95,1.99
0.987939,-0.275,-10.034,2.015
0.997844,-0.314,-10.157,2.033
1.007749,-0.314,-10.182,1.949
1.017654,-0.275,-10.175,1.91
1.027559,-0.196,-10.168,1.872
1.037464,-0.157,-10.053,1.892
1.047369,-0.157,-9.923,1.835
1.057273,-0.157,-9.821,1.933
1.067177,-0.157,-9.684,1.837
1.077081,-0.157,-9.634,2.006
1.086985,-0.196,-9.55,1.981
1.096889,-0.235,-9.487,2.071
1.106793,-0.314,-9.578,2.135
1.116697,-0.314,-9.589,1.974
1.126601,-0.235,-9.68,2.037
1.136505,-0.275,-9.764,2.062
1.146409,-0.235,-9.823,2.171
1.156313,-0.235,-9.841,2.049
1.166217,-0.275,-9.887,2.081
1.176121,-0.314,-10.009,2.099
1.186025,-0.275,-10.1,2.162
1.195938,-0.275,-10.157,2.033
1.205851,-0.235,-10.177,2.149
1.215764,-0.235,-10.118,2.04
1.225677,-0.235,-10.066,1.969
1.23559,-0.196,-9.968,1.867
1.245503,-0.196,-9.943,1.951
1.255416,-0.196,-9.909,1.758
1.265329,-0.235,-9.878,1.803
1.275242,-0.235,-9.812,1.656
1.285155,-0.235,-9.794,1.778
1.295068,-0.235,-9.78,1.701
1.304981,-0.235,-9.741,1.708
1.314894,-0.235,-9.741,1.708
1.324825,-0.235,-9.714,1.553
1.334756,-0.275,-9.762,1.824
1.344687,-0.235,-9.766,1.624
1.354618,-0.235,-9.844,1.61
1.364549,-0.235,-9.798,1.578
1.37448,-0.235,-9.707,1.515
1.384411,-0.275,-9.707,1.515
1.394342,-0.314,-9.734,1.669
1.404273,-0.275,-9.721,1.592
1.414204,-0.314,-9.759,1.585
1.424135,-0.275,-9.721,1.592
1.434066,-0.196,-9.714,1.553
1.443997,-0.196,-9.773,1.662
1.453952,-0.196,-9.819,1.694
1.463907,-0.235,-9.891,1.881
1.473862,-0.235,-9.773,1.662
1.483817,-0.235,-9.773,1.662
1.493772,-0.196,-9.759,1.585
1.503727,-0.196,-9.773,1.662
1.513682,-0.157,-9.832,1.772
1.523637,-0.157,-9.819,1.694
1.533592,-0.157,-9.864,1.726
1.543547,-0.196,-9.839,1.81
1.553502,-0.157,-9.916,1.797
1.563457,-0.196,-9.909,1.758
1.573412,-0.196,-9.909,1.758
1.583357,-0.235,-9.987,1.744
1.593302,-0.235,-9.993,1.783
1.603247,-0.235,-9.955,1.79
1.613192,-0.235,-9.928,1.635
1.623137,-0.235,-9.987,1.744
1.633082,-0.235,-9.93,1.874
1.643027,-0.196,-9.934,1.674
1.652972,-0.235,-9.839,1.81
1.662917,-0.235,-9.819,1.694
1.672862,-0.196,-9.839,1.81
1.682807,-0.235,-9.741,1.708
1.692752,-0.235,-9.8,1.817
1.702697,-0.275,-9.821,1.933
1.712642,-0.314,-9.832,1.772
1.722599,-0.392,-9.814,1.894
1.732556,-0.471,-9.846,1.849
1.742513,-0.588,-9.846,1.849
1.75247,-0.667,-9.898,1.919
1.762427,-0.745,-9.975,1.906
1.772384,-0.824,-9.975,1.906
1.782341,-0.941,-9.937,1.912
1.792298,-0.981,-9.916,1.797
1.802255,-0.981,-9.909,1.758
1.812212,-0.981,-9.832,1.772
1.822169,-0.981,-9.819,1.694
1.832126,-0.981,-9.787,1.74
1.842083,-0.981,-9.741,1.708
1.852033,-0.941,-9.691,1.876
1.861983,-0.863,-9.639,1.806
1.871933,-0.863,-9.607,1.851
1.881883,-0.902,-9.6,1.812
1.891833,-1.02,-9.621,1.928
1.901783,-1.059,-9.666,1.96
1.911733,-1.098,-9.744,1.946
1.921683,-1.098,-9.814,1.894
1.931633,-0.981,-9.891,1.881
1.941583,-0.902,-9.93,1.874
1.951533,-0.824,-9.916,1.797
1.961483,-0.667,-9.891,1.881
1.971433,-0.549,-9.853,1.887
1.981384,-0.392,-9.841,2.049
1.991335,-0.235,-9.723,1.831
2.001286,-0.078,-9.646,1.844
2.011237,0.0,-9.589,1.974
2.021188,0.118,-9.537,1.903
2.031139,0.157,-9.505,1.949
2.04109,0.157,-9.571,2.096
2.051041,0.078,-9.603,2.051
2.060992,0.078,-9.673,1.999
2.070943,0.118,-9.712,1.992
2.080894,0.157,-9.73,1.869
2.090845,0.196,-9.828,1.971
2.100796,0.275,-9.828,1.971
2.110785,0.431,-9.782,1.94
2.120774,0.549,-9.887,2.081
2.130763,0.667,-9.834,2.01
2.140752,0.824,-9.88,2.042
2.150741,0.981,-9.828,1.971
2.16073,1.098,-9.873,2.003
2.170719,1.255,-9.834,2.01
2.180708,1.294,-9.841,2.049
2.190697,1.412,-9.816,2.133
2.200686,1.53,-9.782,1.94
2.210675,1.687,-9.782,1.94
2.220664,1.765,-9.841,2.049
2.230653,1.844,-9.789,1.978
2.240661,1.961,-9.75,1.985
2.250669,2.04,-9.693,2.115
2.260677,2.04,-9.623,2.167
2.270685,2.079,-9.598,2.251
2.280693,2.079,-9.623,2.167
2.290701,2.197,-9.637,2.244
2.300709,2.275,-9.675,2.237
2.310717,2.354,-9.682,2.276
2.320725,2.432,-9.759,2.262
2.330733,2.55,-9.875,2.242
2.340741,2.628,-9.959,2.267
2.350749,2.746,-9.998,2.26
2.360757,2.785,-9.978,2.144
2.370774,2.864,-9.943,1.951
2.380791,2.981,-9.871,1.765
2.390808,2.942,-9.912,1.996
2.400825,2.942,-9.925,2.074
2.410842,2.903,-9.95,1.99
2.420859,2.864,-9.937,1.912
2.430876,2.864,-9.948,1.751
2.440893,2.785,-9.903,1.719
2.45091,2.707,-9.78,1.701
2.460927,2.667,-9.696,1.676
2.470944,2.628,-9.559,1.581
2.480961,2.667,-9.475,1.556
2.490978,2.707,-9.45,1.64
2.500968,2.746,-9.45,1.64
2.510958,2.785,-9.496,1.671
2.520948,2.785,-9.45,1.64
2.530938,2.746,-9.437,1.562
2.540928,2.667,-9.405,1.608
2.550918,2.628,-9.423,1.485
2.560908,2.589,-9.469,1.517
2.570898,2.511,-9.475,1.556
2.580888,2.393,-9.507,1.51
2.590878,2.236,-9.521,1.587
2.600868,2.079,-9.605,1.612
2.610858,2.001,-9.703,1.715
2.620848,1.883,-9.78,1.701
2.630838,1.804,-9.928,1.635
2.640828,1.765,-10.089,1.647
2.650782,1.765,-10.212,1.665
2.660736,1.648,-10.348,1.76
2.67069,1.687,-10.371,1.438
2.680644,1.687,-10.443,1.624
2.690598,1.687,-10.514,1.572
2.700552,1.726,-10.584,1.519
2.710506,1.804,-10.7,1.499
2.72046,1.844,-10.784,1.524
2.730414,1.844,-10.732,1.454
2.740368,1.883,-10.609,1.435
2.750322,1.844,-10.409,1.431
2.760276,1.883,-10.312,1.328
2.770208,1.883,-10.234,1.342
2.78014,1.804,-10.105,1.285
2.790072,1.765,-10.039,1.138
2.800004,1.687,-9.994,1.106
2.809936,1.608,-9.896,1.003
2.819868,1.53,-9.816,0.779
2.8298,1.491,-9.673,0.644
2.839732,1.412,-9.551,0.626
2.849664,1.373,-9.551,0.626
2.859596,1.334,-9.53,0.51
2.869528,1.373,-9.555,0.426
2.87946,1.412,-9.601,0.458
2.889392,1.412,-9.716,0.438
2.899308,1.373,-9.757,-0.008
2.909224,1.294,-9.823,0.14
2.91914,1.255,-9.866,-0.067
2.929056,1.177,-9.871,-0.267
2.938972,1.098,-9.917,-0.235
2.948888,1.059,-9.882,-0.428
2.958804,1.02,-9.882,-0.428
2.96872,0.981,-9.823,-0.537
2.978636,0.981,-9.81,-0.614
2.988552,0.941,-9.778,-0.569
2.998468,0.902,-9.758,-0.685
3.008384,0.902,-9.81,-0.614
3.0183,0.902,-9.776,-0.808
3.028191,0.824,-9.769,-0.846
3.038082,0.863,-9.839,-0.898
3.047973,0.863,-9.833,-0.937
3.057864,0.902,-9.798,-1.13
3.067755,0.863,-9.805,-1.092
3.077646,0.902,-9.83,-1.176
3.087537,0.863,-9.817,-1.253
3.097428,0.863,-9.842,-1.337
3.107319,0.863,-9.835,-1.376
3.11721,0.863,-9.783,-1.446
3.127101,0.785,-9.789,-1.407
3.136992,0.745,-9.758,-1.362
3.146883,0.667,-9.653,-1.503
3.156774,0.745,-9.667,-1.426
3.166662,0.667,-9.66,-1.464
3.17655,0.51,-9.621,-1.457
3.186438,0.431,-9.542,-1.682
3.196326,0.314,-9.653,-1.503
3.206214,0.314,-9.73,-1.517
3.216102,0.235,-9.762,-1.562
3.22599,0.157,-9.826,-1.653
3.235878,0.118,-9.903,-1.667
3.245766,0.078,-9.935,-1.712
3.255654,0.039,-9.953,-1.835
3.265542,0.078,-9.946,-1.873
3.27543,0.078,-9.939,-1.912
3.285318,0.118,-9.953,-1.835
3.295208,0.157,-9.901,-1.905
3.305098,0.157,-9.733,-1.955
3.314988,0.235,-9.849,-1.976
3.324878,0.235,-9.758,-2.039
3.334768,0.275,-9.771,-1.962
3.344658,0.235,-9.705,-2.11
3.354548,0.196,-9.739,-1.916
3.364438,0.118,-9.726,-1.994
3.374328,0.039,-9.778,-1.923
3.384218,0.039,-9.785,-1.885
3.394108,0.039,-9.81,-1.969
3.403998,-0.039,-9.803,-2.007
3.413888,0.0,-9.803,-2.007
3.423773,-0.039,-9.751,-2.078
3.433658,-0.039,-9.785,-1.885
3.443543,-0.039,-9.758,-2.039
3.453428,-0.118,-9.765,-2.001
3.463313,-0.118,-9.724,-2.232
3.473198,-0.118,-9.751,-2.078
3.483083,-0.118,-9.817,-1.93
3.492968,-0.157,-9.828,-2.091
3.502853,-0.157,-9.86,-2.137
3.512738,-0.157,-9.853,-2.176
3.522623,-0.157,-9.892,-2.182
3.532508,-0.235,-9.899,-2.144
3.542393,-0.275,-9.846,-2.214
3.552278,-0.235,-9.867,-2.098
3.562141,-0.275,-9.86,-2.137
3.572004,-0.275,-9.821,-2.13
3.581867,-0.275,-9.815,-2.169
3.59173,-0.275,-9.808,-2.207
3.601593,-0.196,-9.762,-2.239
3.611456,-0.235,-9.769,-2.201
3.621319,-0.235,-9.769,-2.201
3.631182,-0.275,-9.717,-2.271
3.641045,-0.235,-9.762,-2.239
3.650908,-0.235,-9.762,-2.239
3.660771,-0.235,-9.815,-2.169
3.670634,-0.235,-9.892,-2.182
3.680497,-0.235,-9.896,-2.382
3.69036,-0.275,-9.917,-2.266
3.700242,-0.275,-9.89,-2.421
3.710124,-0.275,-9.924,-2.228
3.720006,-0.275,-9.91,-2.305
3.729888,-0.275,-9.878,-2.26
3.73977,-0.275,-9.833,-2.291
3.749652,-0.235,-9.801,-2.246
3.759534,-0.196,-9.774,-2.4
3.769416,-0.157,-9.742,-2.355
3.779298,-0.157,-9.78,-2.362
3.78918,-0.157,-9.735,-2.394
3.799062,-0.157,-9.728,-2.432
3.808944,-0.118,-9.74,-2.594
3.818806,-0.157,-9.76,-2.478
3.828668,-0.157,-9.755,-2.278
3.83853,-0.196,-9.715,-2.51
3.848392,-0.196,-9.735,-2.394
3.858254,-0.196,-9.767,-2.439
3.868116,-0.196,-9.76,-2.478
3.877978,-0.157,-9.805,-2.446
3.88784,-0.196,-9.785,-2.562
3.897702,-0.196,-9.753,-2.516
3.907564,-0.235,-9.774,-2.4
3.917426,-0.235,-9.753,-2.516
3.927288,-0.235,-9.785,-2.562
3.93715,-0.235,-9.76,-2.478
3.947012,-0.275,-9.742,-2.355
3.956893,-0.275,-9.669,-2.541
3.966774,-0.275,-9.721,-2.471
3.976655,-0.275,-9.78,-2.362
3.986536,-0.275,-9.819,-2.369
3.996417,-0.235,-9.833,-2.291
4.006298,-0.275,-9.819,-2.369
4.016179,-0.314,-9.858,-2.375
4.02606,-0.314,-9.878,-2.26
4.035941,-0.275,-9.865,-2.337
4.045822,-0.314,-9.851,-2.414
4.055703,-0.275,-9.903,-2.344
4.065584,-0.235,-9.928,-2.428
4.075465,-0.235,-9.935,-2.389
4.08536,-0.235,-9.935,-2.389
4.095255,-0.157,-9.883,-2.46
4.10515,-0.157,-9.896,-2.382
4.115045,-0.157,-9.869,-2.537
4.12494,-0.157,-9.869,-2.537
4.134835,-0.157,-9.824,-2.569
4.14473,-0.157,-9.803,-2.685
4.154625,-0.196,-9.771,-2.639
4.16452,-0.196,-9.733,-2.632
4.174415,-0.196,-9.726,-2.671
4.18431,-0.196,-9.681,-2.703
4.194205,-0.196,-9.674,-2.741
4.2041,-0.196,-9.596,-2.728
4.214015,-0.196,-9.587,-3.005
4.22393,-0.235,-9.603,-2.689
4.233845,-0.275,-9.603,-2.689
4.24376,-0.314,-9.603,-2.689
4.253675,-0.392,-9.59,-2.766
4.26359,-0.471,-9.576,-2.844
4.273505,-0.549,-9.642,-2.696
4.28342,-0.549,-9.642,-2.696
4.293335,-0.588,-9.687,-2.664
4.30325,-0.549,-9.681,-2.703
4.313165,-0.549,-9.706,-2.787
4.32308,-0.549,-9.719,-2.71
4.332995,-0.549,-9.687,-2.664
4.342893,-0.588,-9.706,-2.787
4.352791,-0.588,-9.719,-2.71
4.362689,-0.628,-9.669,-2.541
4.372587,-0.628,-9.649,-2.657
4.382485,-0.628,-9.649,-2.657
4.392383,-0.628,-9.596,-2.728
4.402281,-0.628,-9.624,-2.573
4.412179,-0.628,-9.669,-2.541
4.422077,-0.667,-9.631,-2.535
4.431975,-0.667,-9.571,-2.644
4.441873,-0.745,-9.574,-2.405
4.451771,-0.824,-9.56,-2.482
4.461669,-0.824,-9.567,-2.444
4.471567,-0.863,-9.546,-2.56
4.481484,-0.863,-9.612,-2.412
4.491401,-0.941,-9.658,-2.38
4.501318,-0.981,-9.637,-2.496
4.511235,-1.059,-9.721,-2.471
4.521152,-1.098,-9.735,-2.394
4.531069,-1.098,-9.774,-2.4
4.540986,-1.138,-9.799,-2.485
4.550903,-1.177,-9.833,-2.291
4.56082,-1.216,-9.896,-2.382
4.570737,-1.294,-9.858,-2.375
4.580654,-1.294,-9.871,-2.298
4.590571,-1.334,-9.903,-2.344
4.600488,-1.334,-9.987,-2.319
4.61043,-1.412,-10.014,-2.164
4.620372,-1.412,-10.014,-2.164
4.630314,-1.412,-9.976,-2.157
4.640256,-1.412,-9.962,-2.235
4.650198,-1.491,-9.903,-2.344
4.66014,-1.491,-9.924,-2.228
4.670082,-1.451,-9.871,-2.298
4.680024,-1.451,-9.858,-2.375
4.689966,-1.451,-9.812,-2.407
4.699908,-1.412,-9.755,-2.278
4.70985,-1.412,-9.762,-2.239
4.719792,-1.334,-9.71,-2.31
4.729734,-1.294,-9.671,-2.303
4.739661,-1.334,-9.619,-2.373
4.749588,-1.216,-9.601,-2.251
4.759515,-1.177,-9.633,-2.296
4.769442,-1.138,-9.658,-2.38
4.779369,-1.138,-9.665,-2.341
4.789296,-1.098,-9.665,-2.341
4.799223,-1.098,-9.787,-2.323
4.80915,-1.02,-9.84,-2.253
4.819077,-1.02,-9.865,-2.337
4.829004,-1.059,-9.871,-2.298
4.838931,-1.098,-9.833,-2.291
4.848858,-1.138,-9.885,-2.221
4.858785,-1.177,-9.871,-2.298
4.868712,-1.138,-9.833,-2.291
4.878647,-1.216,-9.78,-2.362
4.888582,-1.138,-9.74,-2.594
4.898517,-1.138,-9.78,-2.362
4.908452,-1.138,-9.749,-2.316
4.918387,-1.098,-9.755,-2.278
4.928322,-1.098,-9.794,-2.285
4.938257,-1.098,-9.78,-2.362
4.948192,-1.059,-9.749,-2.316
4.958127,-1.098,-9.787,-2.323
4.968062,-1.098,-9.833,-2.291
4.977997,-1.098,-9.812,-2.407
4.987932,-1.098,-9.851,-2.414
4.997867,-1.098,-9.851,-2.414
5.00782,-1.059,-9.851,-2.414
5.017773,-1.059,-9.651,-2.419
5.027726,-1.059,-9.767,-2.439
5.037679,-1.059,-9.78,-2.362
5.047632,-1.02,-9.735,-2.394
5.057585,-1.02,-9.742,-2.355
5.067538,-1.02,-9.671,-2.303
5.077491,-1.02,-9.71,-2.31
5.087444,-0.981,-9.651,-2.419
5.097397,-0.981,-9.696,-2.387
5.10735,-0.902,-9.774,-2.4
5.117303,-0.941,-9.78,-2.362
5.127256,-0.902,-9.787,-2.323
5.137228,-0.863,-9.749,-2.316
5.1472,-0.824,-9.774,-2.4
5.157172,-0.785,-9.774,-2.4
5.167144,-0.785,-9.721,-2.471
5.177116,-0.745,-9.69,-2.426
5.187088,-0.745,-9.665,-2.341
5.19706,-0.667,-9.619,-2.373
5.207032,-0.706,-9.676,-2.503
5.217004,-0.706,-9.671,-2.303
5.226976,-0.667,-9.69,-2.426
5.236948,-0.667,-9.721,-2.471
5.24692,-0.667,-9.701,-2.587
5.256892,-0.667,-9.735,-2.394
5.266858,-0.667,-9.708,-2.548
5.276824,-0.667,-9.721,-2.471
5.28679,-0.706,-9.728,-2.432
5.296756,-0.745,-9.778,-2.6
5.306722,-0.745,-9.844,-2.453
5.316688,-0.785,-9.844,-2.453
5.326654,-0.863,-9.767,-2.439
5.33662,-0.824,-9.792,-2.523
5.346586,-0.863,-9.837,-2.491
5.356552,-0.863,-9.844,-2.453
5.366518,-0.863,-9.869,-2.537
5.376484,-0.863,-9.81,-2.646
5.38645,-0.863,-9.837,-2.491
5.396416,-0.824,-9.844,-2.453
5.406395,-0.745,-9.844,-2.453
5.416374,-0.745,-9.785,-2.562
5.426353,-0.706,-9.733,-2.632
5.436332,-0.667,-9.746,-2.555
5.446311,-0.628,-9.753,-2.516
5.45629,-0.588,-9.733,-2.632
5.466269,-0.628,-9.681,-2.703
5.476248,-0.628,-9.694,-2.625
5.486227,-0.588,-9.726,-2.671
5.496206,-0.549,-9.74,-2.594
5.506185,-0.471,-9.687,-2.664
5.516164,-0.471,-9.642,-2.696
5.526143,-0.51,-9.681,-2.703
5.536122,-0.549,-9.583,-2.805
5.546077,-0.549,-9.61,-2.65
5.556032,-0.51,-9.649,-2.657
5.565987,-0.471,-9.596,-2.728
5.575942,-0.471,-9.642,-2.696
5.585897,-0.471,-9.596,-2.728
5.595852,-0.471,-9.571,-2.644
5.605807,-0.471,-9.571,-2.644
5.615762,-0.51,-9.526,-2.675
5.625717,-0.588,-9.624,-2.573
5.635672,-0.667,-9.61,-2.65
5.645627,-0.667,-9.61,-2.65
5.655582,-0.745,-9.662,-2.58
5.665537,-0.745,-9.715,-2.51
5.675492,-0.824,-9.696,-2.387
5.685447,-0.785,-9.715,-2.51
5.695402,-0.824,-9.74,-2.594
5.705357,-0.824,-9.753,-2.516
5.715312,-0.863,-9.785,-2.562
5.725267,-0.863,-9.765,-2.678
5.735222,-0.902,-9.855,-2.614
5.745177,-0.902,-9.912,-2.744
5.755132,-0.902,-9.965,-2.673
5.765087,-0.902,-9.944,-2.789
5.775042,-0.902,-9.86,-2.814
5.784997,-0.824,-9.926,-2.666
5.794952,-0.824,-9.899,-2.821
5.804907,-0.824,-9.937,-2.828
5.814827,-0.785,-9.949,-2.989
5.824747,-0.824,-9.949,-2.989
5.834667,-0.863,-9.987,-2.996
5.844587,-0.941,-9.771,-2.639
5.854507,-0.902,-9.501,-2.591
5.864427,-0.863,-9.365,-2.687
5.874347,-0.824,-9.301,-2.596
5.884267,-0.745,-9.353,-2.526
5.894187,-0.706,-9.392,-2.532
5.904107,-0.549,-9.34,-2.603
5.914027,-0.392,-9.281,-2.712
5.923947,-0.275,-9.308,-2.557
5.933867,-0.078,-9.353,-2.526
5.943786,0.078,-9.424,-2.578
5.953705,0.275,-9.456,-2.623
5.963624,0.353,-9.481,-2.707
5.973543,0.392,-9.617,-2.612
5.983462,0.392,-9.656,-2.619
5.993381,0.392,-9.733,-2.632
6.0033,0.353,-9.758,-2.716
6.013219,0.314,-9.849,-2.653
6.023138,0.235,-9.926,-2.666
6.033057,0.196,-9.926,-2.666
6.042976,0.118,-9.933,-2.628
6.052895,0.078,-9.933,-2.628
6.062814,0.078,-9.919,-2.705
6.072746,0.078,-9.887,-2.66
6.082678,0.078,-9.855,-2.614
6.09261,0.118,-9.842,-2.691
6.102542,0.157,-9.855,-2.614
6.112474,0.275,-9.862,-2.575
6.122406,0.314,-9.862,-2.575
6.132338,0.353,-9.855,-2.614
6.14227,0.431,-9.883,-2.46
6.152202,0.471,-9.805,-2.446
6.162134,0.549,-9.799,-2.485
6.172066,0.549,-9.78,-2.362
6.181998,0.628,-9.774,-2.4
6.19193,0.588,-9.762,-2.239
6.201832,0.628,-9.78,-2.362
6.211734,0.628,-9.819,-2.369
6.221636,0.667,-9.865,-2.337
6.231538,0.706,-9.917,-2.266
6.24144,0.785,-9.91,-2.305
6.251342,0.863,-10.001,-2.241
6.261244,0.941,-10.008,-2.203
6.271146,0.941,-10.046,-2.21
6.281048,0.981,-10.039,-2.248
6.29095,1.02,-10.053,-2.171
6.300852,0.981,-9.987,-2.319
6.310754,0.941,-9.994,-2.28
6.320656,0.902,-9.949,-2.312
6.330558,0.902,-9.955,-2.273
6.340442,0.863,-9.949,-2.312
6.350326,0.785,-9.924,-2.228
6.36021,0.706,-9.851,-2.414
6.370094,0.628,-9.819,-2.369
6.379978,0.588,-9.787,-2.323
6.389862,0.51,-9.787,-2.323
6.399746,0.392,-9.846,-2.214
6.40963,0.392,-9.91,-2.305
6.419514,0.314,-9.885,-2.221
6.429398,0.353,-9.885,-2.221
6.439282,0.392,-9.892,-2.182
6.449166,0.431,-9.892,-2.182
6.45905,0.431,-9.88,-2.021
6.468934,0.392,-9.79,-2.085
6.478807,0.471,-9.771,-1.962
6.48868,0.392,-9.737,-2.155
6.498553,0.392,-9.719,-2.032
6.508426,0.314,-9.68,-2.026
6.518299,0.235,-9.653,-2.18
6.528172,0.196,-9.705,-2.11
6.538045,0.157,-9.776,-2.162
6.547918,0.157,-9.79,-2.085
6.557791,0.118,-9.821,-2.13
6.567664,0.118,-9.892,-2.182
6.577537,0.078,-9.905,-2.105
6.58741,0.118,-9.93,-2.189
6.597282,0.157,-9.994,-2.28
6.607154,0.196,-10.005,-2.441
6.617026,0.235,-10.051,-2.41
6.626898,0.314,-10.096,-2.378
6.63677,0.353,-10.135,-2.385
6.646642,0.51,-10.096,-2.378
6.656514,0.628,-10.019,-2.364
6.666386,0.706,-9.942,-2.35
6.676258,0.824,-9.896,-2.382
6.68613,0.902,-9.878,-2.26
6.696002,0.941,-9.78,-2.362
6.705874,0.941,-9.685,-2.226
6.715746,0.941,-9.678,-2.264
6.725644,0.981,-9.703,-2.348
6.735542,0.863,-9.685,-2.226
6.74544,0.824,-9.64,-2.257
6.755338,0.745,-9.615,-2.173
6.765236,0.706,-9.576,-2.166
6.775134,0.588,-9.53,-2.198
6.785032,0.51,-9.594,-2.289
6.79493,0.471,-9.692,-2.187
6.804828,0.314,-9.787,-2.323
6.814726,0.275,-9.878,-2.26
6.824624,0.235,-9.878,-2.26
6.834522,0.157,-9.937,-2.151
6.84442,0.118,-9.962,-2.235
6.854307,0.039,-9.962,-2.235
6.864194,0.0,-9.974,-2.396
6.874081,-0.039,-9.955,-2.273
6.883968,-0.039,-9.942,-2.35
6.893855,-0.118,-9.955,-2.273
6.903742,-0.157,-9.949,-2.312
6.913629,-0.157,-9.89,-2.421
6.923516,-0.157,-9.837,-2.491
6.933403,-0.157,-9.812,-2.407
6.94329,-0.118,-9.753,-2.516
6.953177,-0.039,-9.715,-2.51
6.963064,-0.078,-9.708,-2.548
6.972951,-0.078,-9.662,-2.58
6.982838,-0.078,-9.624,-2.573
6.992728,0.039,-9.521,-2.476
7.002618,0.196,-9.326,-2.68
7.012508,0.275,-9.237,-2.505
7.022398,0.275,-9.237,-2.505
7.032288,0.353,-9.174,-2.414
7.042178,0.431,-9.128,-2.446
7.052068,0.51,-9.153,-2.53
7.061958,0.392,-9.212,-2.421
7.071848,0.314,-9.187,-2.337
7.081738,0.196,-9.219,-2.382
7.091628,0.157,-9.201,-2.26
7.101518,0.039,-9.176,-2.176
7.111408,-0.078,-9.158,-2.053
7.121262,-0.196,-9.126,-2.007
7.131116,-0.275,-9.153,-1.853
7.14097,-0.431,-9.146,-1.892
7.150824,-0.628,-9.265,-1.673
7.160678,-0.785,-9.285,-1.558
7.170532,-0.941,-9.249,-1.312
7.180386,-1.02,-9.405,-1.101
7.19024,-1.138,-9.405,-1.101
7.200094,-1.255,-9.458,-1.03
7.209948,-1.334,-9.489,-1.076
7.219802,-1.451,-9.562,-0.889
7.229656,-1.53,-9.698,-0.794
7.23951,-1.608,-9.751,-0.724
7.249364,-1.726,-9.796,-0.692
7.259172,-1.726,-9.869,-0.505
7.26898,-1.844,-9.928,-0.396
7.278788,-1.883,-9.994,-0.249
7.288596,-1.961,-10.032,-0.255
7.298404,-1.961,-10.137,-0.114
7.308212,-1.961,-10.073,-0.024
7.31802,-2.001,-10.073,-0.024
7.327828,-1.922,-10.185,0.156
7.337636,-1.922,-10.275,0.22
7.347444,-1.883,-10.405,0.276
7.357252,-1.883,-10.594,0.442
7.36706,-1.883,-10.684,0.506
7.376868,-1.883,-10.723,0.499
7.386676,-1.844,-10.698,0.583
7.396484,-1.804,-10.698,0.583
7.406272,-1.804,-10.603,0.72
7.41606,-1.765,-10.539,0.81
7.425848,-1.844,-10.657,1.029
7.435636,-1.961,-10.846,1.194
7.445424,-2.157,-11.268,1.558
7.455212,-2.314,-11.948,1.797
7.465,-2.393,-11.948,1.797
7.474788,-2.393,-12.082,1.654
7.484576,-2.354,-12.093,1.492
7.494364,-2.275,-12.02,1.306
7.504152,-2.118,-11.8,1.186
7.51394,-1.961,-11.514,0.917
7.523728,-1.765,-11.309,1.113
7.533496,-1.687,-11.005,0.967
7.543264,-1.53,-10.78,1.047
7.553032,-1.451,-10.521,0.933
7.5628,-1.412,-10.296,1.013
7.572568,-1.334,-10.094,0.769
7.582336,-1.294,-9.962,0.474
7.592104,-1.177,-9.837,0.217
7.601872,-0.981,-9.726,0.038
7.61164,-0.706,-9.576,-0.135
7.621408,-0.431,-9.426,-0.308
7.631176,-0.157,-9.348,-0.294
7.640944,0.118,-9.192,-0.505
7.650712,0.431,-9.146,-0.537
7.660471,0.706,-9.105,-0.769
7.67023,0.981,-9.117,-0.93
7.679989,1.138,-9.18,-1.021
7.689748,1.294,-9.251,-1.074
7.699507,1.491,-9.326,-1.326
7.709266,1.648,-9.435,-1.385
7.719025,1.804,-9.51,-1.637
7.728784,1.883,-9.599,-1.812
7.738543,1.961,-9.778,-1.923
7.748302,1.961,-9.878,-2.26
7.758061,1.922,-9.949,-2.312
7.76782,1.804,-9.949,-2.312
7.777579,1.648,-9.949,-2.312
7.787338,1.451,-9.858,-2.375
7.797105,1.216,-9.819,-2.369
7.806872,0.941,-9.703,-2.348
7.816639,0.745,-9.619,-2.373
7.826406,0.549,-9.574,-2.405
7.836173,0.314,-9.553,-2.521
7.84594,0.157,-9.469,-2.546
7.855707,0.0,-9.442,-2.7
7.865474,-0.118,-9.487,-2.669
7.875241,-0.235,-9.526,-2.675
7.885008,-0.314,-9.453,-2.862
7.894775,-0.353,-9.485,-2.907
7.904542,-0.392,-9.517,-2.953
7.914309,-0.392,-9.517,-2.953
7.924117,-0.431,-9.49,-3.107
7.933925,-0.51,-9.437,-3.178
7.943733,-0.51,-9.342,-3.041
7.953541,-0.471,-9.276,-3.189
7.963349,-0.431,-9.244,-3.144
7.973157,-0.392,-9.206,-3.137
7.982965,-0.314,-9.237,-3.182
7.992773,-0.235,-9.231,-3.221
8.002581,-0.235,-9.269,-3.228
8.012389,-0.196,-9.262,-3.266
8.022197,-0.157,-9.269,-3.228
8.032005,-0.118,-9.256,-3.305
8.041813,-0.118,-9.269,-3.228
8.051662,-0.118,-9.301,-3.273
8.061511,-0.039,-9.301,-3.273
8.07136,0.0,-9.353,-3.203
8.081209,0.078,-9.385,-3.248
8.091058,0.118,-9.483,-3.146
8.100907,0.157,-9.54,-3.275
8.110756,0.157,-9.56,-3.159
8.120605,0.235,-9.553,-3.198
8.130454,0.235,-9.585,-3.244
8.140303,0.235,-9.624,-3.25
8.150152,0.196,-9.637,-3.173
8.160001,0.235,-9.687,-3.341
8.16985,0.235,-9.528,-3.114
8.179742,0.235,-9.644,-3.134
8.189634,0.196,-9.624,-3.25
8.199526,0.157,-9.585,-3.244
8.209418,0.118,-9.69,-3.103
8.21931,0.078,-9.708,-3.225
8.229202,0.039,-9.708,-3.225
8.239094,0.0,-9.717,-2.948
8.248986,0.0,-9.651,-3.096
8.258878,-0.039,-9.581,-3.044
8.26877,-0.039,-9.594,-2.966
8.278662,-0.039,-9.499,-2.83
8.288554,-0.039,-9.51,-2.991
8.298446,-0.039,-9.503,-3.03
8.308338,-0.039,-9.633,-2.973
8.318255,-0.078,-9.685,-2.903
8.328172,-0.039,-9.703,-3.025
8.338089,0.0,-9.756,-2.955
8.348006,0.0,-9.806,-3.123
8.357923,0.0,-9.826,-3.007
8.36784,0.0,-9.774,-3.078
8.377757,0.0,-9.792,-3.2
8.387674,0.0,-9.812,-3.084
8.397591,0.0,-9.812,-3.084
8.407508,0.0,-9.76,-3.155
8.417425,0.0,-9.69,-3.103
8.427342,0.0,-9.644,-3.134
8.437259,0.0,-9.574,-3.082
8.44721,0.0,-9.549,-2.998
8.457161,-0.039,-9.51,-2.991
8.467112,-0.039,-9.426,-3.016
8.477063,-0.039,-9.406,-3.132
8.487014,0.0,-9.399,-3.171
8.496965,0.0,-9.451,-3.1
8.506916,-0.039,-9.476,-3.184
8.516867,-0.039,-9.515,-3.191
8.526818,-0.039,-9.535,-3.075
8.536769,0.0,-9.581,-3.044
8.54672,0.039,-9.631,-3.212
8.556671,0.078,-9.599,-3.166
8.566622,0.078,-9.637,-3.173
8.57661,0.039,-9.676,-3.18
8.586598,0.078,-9.715,-3.187
8.596586,0.039,-9.669,-3.219
8.606574,0.039,-9.606,-3.128
8.616562,0.039,-9.542,-3.037
8.62655,0.039,-9.472,-2.985
8.636538,0.0,-9.367,-3.125
8.646526,-0.039,-9.451,-3.1
8.656514,-0.078,-9.497,-3.069
8.666502,-0.078,-9.522,-3.153
8.67649,-0.078,-9.56,-3.159
8.686478,-0.078,-9.592,-3.205
8.696466,-0.118,-9.581,-3.044
8.706454,-0.157,-9.56,-3.159
8.71644,-0.196,-9.599,-3.166
8.726426,-0.235,-9.578,-3.282
8.736412,-0.275,-9.617,-3.289
8.746398,-0.314,-9.649,-3.334
8.756384,-0.314,-9.631,-3.212
8.76637,-0.353,-9.585,-3.244
8.776356,-0.431,-9.49,-3.107
8.786342,-0.471,-9.367,-3.125
8.796328,-0.549,-9.258,-3.066
8.806314,-0.706,-9.026,-3.025
8.8163,-0.785,-8.808,-2.907
8.826286,-0.785,-8.633,-2.996
8.836272,-0.785,-8.594,-2.989
8.846281,-0.785,-8.549,-3.021
8.85629,-0.706,-8.506,-2.814
8.866299,-0.706,-8.506,-2.814
8.876308,-0.667,-8.558,-2.744
8.886317,-0.706,-8.688,-2.687
8.896326,-0.628,-8.851,-2.437
8.906335,-0.628,-8.935,-2.412
8.916344,-0.588,-9.026,-2.348
8.926353,-0.549,-9.085,-2.239
8.936362,-0.471,-9.144,-2.13
8.946371,-0.431,-9.137,-2.169
8.95638,-0.471,-9.169,-2.214
8.966389,-0.471,-9.396,-2.055
8.976402,-0.51,-9.526,-1.998
8.986415,-0.549,-9.683,-1.787
8.996428,-0.431,-9.767,-1.762
9.006441,-0.314,-9.867,-1.421
9.016454,-0.196,-9.894,-1.267
9.026467,-0.118,-9.921,-1.112
9.03648,0.039,-9.964,-0.642
9.046493,0.157,-9.964,-0.642
9.056506,0.314,-10.194,-0.244
9.066519,0.431,-10.423,0.154
9.076532,0.471,-10.703,0.383
9.086545,0.51,-10.982,0.613
9.096558,0.471,-11.112,0.67
9.10659,0.471,-11.209,0.772
9.116622,0.471,-11.314,0.913
9.126654,0.471,-11.321,0.951
9.136686,0.431,-11.2,1.172
9.146718,0.431,-11.148,1.101
9.15675,0.471,-11.059,1.276
9.166782,0.51,-10.884,1.188
9.176814,0.51,-10.775,1.247
9.186846,0.51,-10.673,1.344
9.196878,0.51,-10.546,1.526
9.20691,0.51,-10.462,1.501
9.216942,0.392,-10.325,1.406
9.226974,0.314,-10.248,1.419
9.236987,0.314,-10.216,1.465
9.247,0.157,-10.137,1.24
9.257013,0.078,-10.212,1.665
9.267026,0.118,-10.153,1.556
9.277039,0.078,-10.062,1.492
9.287052,0.078,-10.055,1.453
9.297065,0.039,-10.009,1.422
9.307078,0.039,-10.055,1.453
9.317091,0.0,-10.094,1.447
9.327104,-0.039,-10.139,1.478
9.337117,-0.039,-10.262,1.497
9.34713,0.0,-10.416,1.469
9.357143,0.0,-10.507,1.533
9.367156,0.039,-10.571,1.442
9.377163,0.039,-10.616,1.474
9.38717,0.078,-10.607,1.197
9.397177,0.078,-10.614,1.235
9.407184,0.0,-10.484,1.179
9.417191,0.039,-10.484,1.179
9.427198,0.0,-10.407,1.192
9.437205,0.039,-10.38,1.038
9.447212,0.078,-10.316,1.129
9.457219,0.078,-10.2,1.149
9.467226,0.118,-10.155,1.117
9.477233,0.118,-10.064,1.053
9.48724,0.157,-9.973,0.99
9.497247,0.157,-9.837,0.894
9.507234,0.118,-9.81,0.74
9.517221,0.196,-9.778,0.785
9.527208,0.157,-9.803,0.701
9.537195,0.118,-9.751,0.631
9.547182,0.078,-9.744,0.592
9.557169,0.118,-9.782,0.585
9.567156,0.118,-9.821,0.579
9.577143,0.118,-9.885,0.488
9.58713,0.118,-9.975,0.551
9.597117,0.078,-10.021,0.583
9.607104,0.078,-10.06,0.576
9.617091,0.039,-10.091,0.531
9.627078,-0.039,-10.123,0.485
9.637065,-0.039,-10.2,0.472
9.647052,-0.039,-10.285,0.497
9.657039,-0.078,-10.323,0.49
9.666988,-0.039,-10.344,0.606
9.676937,-0.078,-10.266,0.62
9.686886,-0.039,-10.266,0.62
9.696835,0.0,-10.232,0.426
9.706784,0.039,-10.257,0.342
9.716733,0.078,-10.36,0.245
9.726682,0.118,-10.455,0.108
9.736631,0.157,-10.58,0.365
9.74658,0.235,-10.707,0.183
9.756529,0.275,-10.809,0.086
9.766478,0.314,-10.88,0.033
9.776427,0.353,-10.971,0.097
9.786347,0.353,-11.119,0.031
9.796267,0.431,-11.182,-0.06
9.806187,0.431,-11.066,-0.039
9.816107,0.392,-10.789,-0.03
9.826027,0.353,-10.523,-0.183
9.835947,0.353,-10.276,-0.458
9.845867,0.314,-10.128,-0.392
9.855787,0.314,-9.921,-0.435
9.865707,0.196,-9.719,-0.678
9.875627,0.157,-9.551,-0.728
9.885547,0.118,-9.453,-0.83
9.895467,0.078,-9.335,-1.049
9.905387,0.078,-9.314,-1.164
9.915299,0.078,-9.319,-1.364
9.925211,0.039,-9.396,-1.378
9.935123,0.0,-9.337,-1.487
9.945035,0.0,-9.299,-1.48
9.954947,0.0,-9.194,-1.621
9.964859,-0.039,-9.199,-1.821
9.974771,-0.039,-9.217,-1.944
9.984683,-0.078,-9.333,-1.964
9.994595,-0.078,-9.442,-2.023
10.004507,-0.118,-9.512,-2.076
10.014419,-0.196,-9.615,-2.173
10.024331,-0.157,-9.685,-2.226
10.034243,-0.157,-9.755,-2.278
10.044146,-0.157,-9.851,-2.414
10.054049,-0.157,-9.928,-2.428
10.063952,-0.157,-9.908,-2.544
10.073855,-0.196,-9.869,-2.537
10.083758,-0.196,-9.855,-2.614
10.093661,-0.157,-9.812,-2.407
10.103564,-0.196,-9.694,-2.625
10.113467,-0.157,-9.56,-2.482
10.12337,-0.118,-9.437,-2.501
10.133273,-0.039,-9.308,-2.557
10.143176,0.039,-9.36,-2.487
10.153079,0.078,-9.431,-2.539
10.162982,0.118,-9.456,-2.623
10.172885,0.157,-9.526,-2.675
10.182761,0.196,-9.537,-2.837
10.192637,0.275,-9.524,-2.914
10.202513,0.314,-9.615,-2.85
10.212389,0.392,-9.615,-2.85
10.222265,0.431,-9.681,-2.703
10.232141,0.471,-9.646,-2.896
10.242017,0.471,-9.653,-2.857
10.251893,0.51,-9.59,-2.766
10.261769,0.588,-9.615,-2.85
10.271645,0.588,-9.569,-2.882
10.281521,0.549,-9.506,-2.791
10.291397,0.471,-9.565,-2.682
10.301273,0.431,-9.621,-2.812
10.311133,0.353,-9.576,-2.844
10.320993,0.353,-9.583,-2.805
10.330853,0.275,-9.601,-2.928
10.340713,0.196,-9.667,-2.78
10.350573,0.157,-9.724,-2.91
10.360433,0.118,-9.703,-3.025
10.370293,0.078,-9.737,-2.832
10.380153,0.0,-9.678,-2.941
10.390013,-0.078,-9.64,-2.935
10.399873,-0.039,-9.626,-3.012
10.409733,-0.078,-9.633,-2.973
10.419593,-0.078,-9.594,-2.966
10.429453,-0.078,-9.574,-3.082
10.439303,-0.118,-9.549,-2.998
10.449153,-0.078,-9.531,-2.875
10.459003,-0.078,-9.499,-2.83
10.468853,-0.118,-9.44,-2.939
10.478703,-0.118,-9.467,-2.785
10.488553,-0.078,-9.415,-2.855
10.498403,-0.078,-9.376,-2.848
10.508253,-0.078,-9.383,-2.81
10.518103,-0.078,-9.39,-2.771
10.527953,-0.078,-9.467,-2.785
10.537803,-0.039,-9.512,-2.753
10.547653,-0.039,-9.628,-2.773
10.557503,-0.078,-9.653,-2.857
10.567353,-0.078,-9.667,-2.78
10.577203,-0.118,-9.706,-2.787
10.58707,-0.157,-9.758,-2.716
10.596937,-0.196,-9.794,-2.962
10.606804,-0.235,-9.84,-2.93
10.616671,-0.275,-9.885,-2.898
10.626538,-0.314,-9.878,-2.937
10.636405,-0.392,-9.917,-2.944
10.646272,-0.471,-9.878,-2.937
10.656139,-0.51,-9.835,-2.73
10.666006,-0.588,-9.758,-2.716
10.675873,-0.628,-9.74,-2.594
10.68574,-0.628,-9.66,-2.819
10.695584,-0.588,-9.66,-2.819
10.705428,-0.628,-9.694,-2.625
10.715272,-0.588,-9.635,-2.735
10.725116,-0.549,-9.596,-2.728
10.73496,-0.51,-9.617,-2.612
10.744804,-0.51,-9.649,-2.657
10.754648,-0.51,-9.687,-2.664
10.764492,-0.51,-9.733,-2.632
10.774336,-0.51,-9.817,-2.607
10.78418,-0.51,-9.869,-2.537
10.794024,-0.51,-9.912,-2.744
10.803868,-0.549,-9.94,-2.589
10.813712,-0.549,-9.933,-2.628
10.823556,-0.549,-9.958,-2.712
10.833392,-0.549,-9.926,-2.666
10.843228,-0.51,-9.919,-2.705
10.853064,-0.51,-9.86,-2.814
10.8629,-0.51,-9.867,-2.775
10.872736,-0.471,-9.867,-2.775
10.882572,-0.51,-9.86,-2.814
10.892408,-0.471,-9.853,-2.853
10.902244,-0.51,-9.849,-2.653
10.91208,-0.431,-9.867,-2.775
10.921916,-0.431,-9.796,-2.723
10.931752,-0.471,-9.719,-2.71
10.941588,-0.471,-9.681,-2.703
10.951424,-0.471,-9.628,-2.773
10.96126,-0.471,-9.628,-2.773
10.971111,-0.51,-9.674,-2.741
10.980962,-0.471,-9.621,-2.812
10.990813,-0.51,-9.608,-2.889
11.000664,-0.471,-9.596,-2.728
11.010515,-0.431,-9.628,-2.773
11.020366,-0.392,-9.621,-2.812
11.030217,-0.353,-9.621,-2.812
11.040068,-0.314,-9.615,-2.85
11.049919,-0.314,-9.608,-2.889
11.05977,-0.275,-9.621,-2.812
11.069621,-0.235,-9.653,-2.857
11.079472,-0.196,-9.608,-2.889
11.089323,-0.235,-9.653,-2.857
11.099214,-0.235,-9.644,-3.134
11.109105,-0.275,-9.744,-2.794
11.118996,-0.314,-9.692,-2.864
11.128887,-0.353,-9.692,-2.864
11.138778,-0.353,-9.633,-2.973
11.148669,-0.353,-9.653,-2.857
11.15856,-0.392,-9.615,-2.85
11.168451,-0.431,-9.556,-2.96
11.178342,-0.471,-9.569,-2.882
11.188233,-0.471,-9.569,-2.882
11.198124,-0.471,-9.506,-2.791
11.208015,-0.471,-9.492,-2.869
11.217906,-0.471,-9.449,-2.662
11.227824,-0.471,-9.435,-2.739
11.237742,-0.431,-9.481,-2.707
11.24766,-0.51,-9.565,-2.682
11.257578,-0.431,-9.565,-2.682
11.267496,-0.392,-9.571,-2.644
11.277414,-0.392,-9.617,-2.612
11.287332,-0.431,-9.74,-2.594
11.29725,-0.471,-9.765,-2.678
11.307168,-0.431,-9.765,-2.678
11.317086,-0.471,-9.803,-2.685
11.327004,-0.471,-9.862,-2.575
11.336922,-0.471,-9.842,-2.691
11.34684,-0.549,-9.792,-2.523
11.356748,-0.549,-9.778,-2.6
11.366656,-0.51,-9.824,-2.569
11.376564,-0.588,-9.778,-2.6
11.386472,-0.628,-9.76,-2.478
11.39638,-0.628,-9.746,-2.555
11.406288,-0.667,-9.792,-2.523
11.416196,-0.706,-9.805,-2.446
11.426104,-0.706,-9.812,-2.407
11.436012,-0.706,-9.792,-2.523
11.44592,-0.745,-9.812,-2.407
11.455828,-0.745,-9.805,-2.446
11.465736,-0.785,-9.812,-2.407
11.475644,-0.785,-9.799,-2.485
11.485552,-0.745,-9.767,-2.439
11.495477,-0.745,-9.767,-2.439
11.505402,-0.785,-9.794,-2.285
11.515327,-0.785,-9.787,-2.323
11.525252,-0.745,-9.774,-2.4
11.535177,-0.745,-9.787,-2.323
11.545102,-0.745,-9.749,-2.316
11.555027,-0.706,-9.71,-2.31
11.564952,-0.667,-9.71,-2.31
11.574877,-0.549,-9.665,-2.341
11.584802,-0.392,-9.619,-2.373
11.594727,-0.118,-9.503,-2.353
11.604652,0.157,-9.285,-2.235
11.614577,0.471,-9.156,-2.292
11.624517,0.785,-9.058,-2.394
11.634457,0.981,-9.019,-2.387
11.644397,0.981,-8.974,-2.419
11.654337,0.902,-8.928,-2.451
11.664277,0.785,-8.91,-2.328
11.674217,0.628,-9.067,-2.117
11.684157,0.431,-9.351,-2.087
11.694097,0.275,-9.274,-2.073
11.704037,0.039,-9.424,-1.901
11.713977,-0.196,-9.476,-1.83
11.723917,-0.431,-9.587,-1.651
11.733857,-0.628,-9.653,-1.503
11.743797,-0.863,-9.687,-1.31
11.753761,-1.098,-9.73,-1.517
11.763725,-1.373,-9.798,-1.13
11.773689,-1.53,-9.826,-0.976
11.783653,-1.687,-9.826,-0.976
11.793617,-1.765,-9.839,-0.898
11.803581,-1.804,-9.828,-0.737
11.813545,-1.883,-9.862,-0.544
11.823509,-1.922,-9.907,-0.512
11.833473,-2.001,-10.076,-0.462
11.843437,-2.001,-10.121,-0.43
11.853401,-2.001,-10.212,-0.367
11.863365,-1.961,-10.246,-0.174
11.873329,-1.883,-10.319,0.013
11.883319,-1.804,-10.346,0.167
11.893309,-1.687,-10.36,0.245
11.903299,-1.608,-10.398,0.238
11.913289,-1.608,-10.387,0.399
11.923279,-1.569,-10.316,0.451
11.933269,-1.53,-10.253,0.542
11.943259,-1.451,-10.221,0.588
11.953249,-1.451,-10.196,0.672
11.963239,-1.491,-10.171,0.756
11.973229,-1.491,-10.119,0.685
11.983219,-1.451,-10.055,0.776
11.993209,-1.491,-10.05,0.976
12.003199,-1.491,-9.998,0.906
12.013243,-1.451,-9.987,1.067
12.023287,-1.412,-9.96,0.913
12.033331,-1.451,-9.962,1.151
12.043375,-1.491,-10.007,1.183
12.053419,-1.53,-10.046,1.176
12.063463,-1.608,-10.109,1.085
12.073507,-1.648,-10.169,1.194
12.083551,-1.608,-10.214,1.226
12.093595,-1.648,-10.259,1.258
12.103639,-1.648,-10.266,1.297
12.113683,-1.608,-10.253,1.219
12.123727,-1.569,-10.305,1.29
12.133771,-1.53,-10.266,1.297
12.143815,-1.53,-10.234,1.342
12.153828,-1.451,-10.241,1.381
12.163841,-1.451,-10.171,1.433
12.173854,-1.334,-10.091,1.208
12.183867,-1.294,-10.087,1.408
12.19388,-1.255,-10.041,1.376
12.203893,-1.216,-10.055,1.453
12.213906,-1.255,-10.028,1.299
12.223919,-1.255,-10.034,1.338
12.233932,-1.255,-10.009,1.422
12.243945,-1.294,-9.982,1.267
12.253958,-1.294,-9.937,1.235
12.263971,-1.294,-9.944,1.274
12.273984,-1.334,-9.964,1.39
12.283997,-1.373,-9.919,1.358
12.293979,-1.334,-9.891,1.203
12.303961,-1.334,-9.925,1.397
12.313943,-1.334,-9.891,1.203
12.323925,-1.334,-9.898,1.242
12.333907,-1.373,-9.859,1.249
12.343889,-1.373,-9.821,1.256
12.353871,-1.412,-9.866,1.288
12.363853,-1.412,-9.866,1.288
12.373835,-1.373,-9.944,1.274
12.383817,-1.373,-9.957,1.351
12.393799,-1.334,-9.95,1.313
12.403781,-1.334,-9.898,1.242
12.413763,-1.294,-9.796,1.34
12.423753,-1.294,-9.744,1.269
12.433743,-1.294,-9.737,1.231
12.443733,-1.334,-9.75,1.308
12.453723,-1.334,-9.764,1.385
12.463713,-1.294,-9.757,1.347
12.473703,-1.373,-9.796,1.34
12.483693,-1.334,-9.803,1.378
12.493683,-1.294,-9.841,1.372
12.503673,-1.334,-9.866,1.288
12.513663,-1.373,-9.919,1.358
12.523653,-1.412,-9.964,1.39
12.533643,-1.412,-9.957,1.351
12.543633,-1.412,-9.919,1.358
12.553589,-1.412,-9.9,1.481
12.563545,-1.491,-9.862,1.487
12.573501,-1.491,-9.894,1.442
12.583457,-1.491,-9.894,1.442
12.593413,-1.491,-9.946,1.512
12.603369,-1.53,-9.939,1.474
12.613325,-1.569,-9.978,1.467
12.623281,-1.608,-10.069,1.531
12.633237,-1.687,-10.1,1.485
12.643193,-1.726,-10.191,1.549
12.653149,-1.765,-10.243,1.619
12.663105,-1.844,-10.23,1.542
12.673061,-1.922,-10.191,1.549
12.683017,-1.922,-10.191,1.549
12.692948,-1.961,-10.153,1.556
12.702879,-1.961,-10.073,1.331
12.71281,-1.961,-10.055,1.453
12.722741,-1.961,-9.964,1.39
12.732672,-1.922,-9.925,1.397
12.742603,-1.844,-9.841,1.372
12.752534,-1.726,-9.834,1.333
12.762465,-1.726,-9.803,1.378
12.772396,-1.608,-9.821,1.256
12.782327,-1.569,-9.775,1.224
12.792258,-1.491,-9.73,1.192
12.802189,-1.412,-9.735,0.992
12.81212,-1.373,-9.773,0.985
12.822028,-1.334,-9.819,1.017
12.831936,-1.294,-9.857,1.01
12.841844,-1.294,-9.778,0.785
12.851752,-1.255,-9.791,0.863
12.86166,-1.216,-9.816,0.779
12.871568,-1.255,-9.81,0.74
12.881476,-1.294,-9.764,0.708
12.891384,-1.294,-9.744,0.592
12.901292,-1.334,-9.737,0.554
12.9112,-1.334,-9.737,0.554
12.921108,-1.334,-9.737,0.554
12.931016,-1.373,-9.685,0.483
12.940924,-1.294,-9.646,0.49
12.950832,-1.294,-9.587,0.381
12.960689,-1.294,-9.626,0.374
12.970546,-1.334,-9.573,0.304
12.980403,-1.373,-9.632,0.413
12.99026,-1.412,-9.716,0.438
13.000117,-1.373,-9.755,0.431
13.009974,-1.373,-9.735,0.315
13.019831,-1.451,-9.805,0.263
13.029688,-1.491,-9.819,0.34
13.039545,-1.491,-9.78,0.347
13.049402,-1.53,-9.78,0.347
13.059259,-1.53,-9.787,0.385
13.069116,-1.53,-9.787,0.385
13.078973,-1.569,-9.755,0.431
13.08883,-1.53,-9.716,0.438
13.098644,-1.608,-9.664,0.367
13.108458,-1.569,-9.73,0.515
13.118272,-1.53,-9.73,0.515
13.128086,-1.569,-9.737,0.554
13.1379,-1.569,-9.814,0.54
13.147714,-1.569,-9.794,0.424
13.157528,-1.608,-9.86,0.572
13.167342,-1.608,-9.853,0.533
13.177156,-1.608,-9.905,0.604
13.18697,-1.608,-9.93,0.519
13.196784,-1.608,-9.95,0.635
13.206598,-1.648,-9.957,0.674
13.216412,-1.648,-9.975,0.551
13.226204,-1.608,-10.01,0.744
13.235996,-1.648,-9.975,0.551
13.245788,-1.648,-9.982,0.59
13.25558,-1.687,-9.95,0.635
13.265372,-1.648,-9.95,0.635
13.275164,-1.687,-9.885,0.488
13.284956,-1.687,-9.853,0.533
13.294748,-1.687,-9.898,0.565
13.30454,-1.726,-9.919,0.681
13.314332,-1.726,-9.95,0.635
13.324124,-1.687,-9.898,0.565
13.333916,-1.726,-9.853,0.533
13.343708,-1.726,-9.846,0.494
13.3535,-1.726,-9.88,0.688
13.363292,-1.726,-9.846,0.494
13.373059,-1.726,-9.705,0.599
13.382826,-1.726,-9.821,0.579
13.392593,-1.687,-9.769,0.508
13.40236,-1.648,-9.789,0.624
13.412127,-1.648,-9.835,0.656
13.421894,-1.608,-9.835,0.656
13.431661,-1.648,-9.866,0.61
13.441428,-1.648,-9.873,0.649
13.451195,-1.608,-9.95,0.635
13.460962,-1.608,-9.919,0.681
13.470729,-1.569,-9.944,0.597
13.480496,-1.569,-9.975,0.551
13.490263,-1.569,-9.95,0.635
13.499993,-1.608,-9.971,0.751
13.509723,-1.53,-9.932,0.758
13.519453,-1.569,-9.919,0.681
13.529183,-1.569,-9.905,0.604
13.538913,-1.569,-9.989,0.629
13.548643,-1.569,-9.971,0.751
13.558373,-1.53,-9.95,0.635
13.568103,-1.569,-9.919,0.681
13.577833,-1.569,-9.944,0.597
13.587563,-1.53,-9.982,0.59
13.597293,-1.569,-9.95,0.635
13.607023,-1.608,-10.144,0.601
13.616753,-1.648,-10.028,0.622
13.626468,-1.687,-10.01,0.744
13.636183,-1.687,-9.996,0.667
13.645898,-1.648,-9.923,0.481
13.655613,-1.687,-9.996,0.667
13.665328,-1.687,-9.982,0.59
13.675043,-1.726,-10.041,0.699
13.684758,-1.726,-10.028,0.622
13.694473,-1.726,-10.066,0.615
13.704188,-1.726,-10.053,0.538
13.713903,-1.726,-10.046,0.499
13.723618,-1.687,-9.975,0.551
13.733333,-1.687,-10.028,0.622
13.743048,-1.648,-9.994,0.429
13.75277,-1.608,-9.955,0.435
13.762492,-1.569,-9.994,0.429
13.772214,-1.491,-9.948,0.397
13.781936,-1.412,-9.916,0.442
13.791658,-1.451,-9.903,0.365
13.80138,-1.412,-10.051,0.299
13.811102,-1.412,-9.973,0.313
13.820824,-1.373,-9.928,0.281
13.830546,-1.373,-9.896,0.326
13.840268,-1.334,-9.882,0.249
13.84999,-1.294,-9.901,0.126
13.859712,-1.334,-9.914,0.204
13.869434,-1.294,-9.869,0.172
13.879181,-1.294,-9.894,0.088
13.888928,-1.216,-9.901,0.126
13.898675,-1.216,-9.887,0.049
13.908422,-1.255,-9.887,0.049
13.918169,-1.255,-9.887,0.049
13.927916,-1.216,-9.887,0.049
13.937663,-1.177,-9.86,-0.105
13.94741,-1.177,-9.887,0.049
13.957157,-1.177,-9.901,0.126
13.966904,-1.138,-9.873,-0.028
13.976651,-1.138,-9.873,-0.028
13.986398,-1.098,-9.898,-0.112
13.996145,-1.138,-9.905,-0.074
14.005934,-1.216,-9.891,-0.151
14.015723,-1.216,-9.891,-0.151
14.025512,-1.177,-9.891,-0.151
14.035301,-1.098,-9.891,-0.151
14.04509,-1.098,-9.898,-0.112
14.054879,-1.098,-9.873,-0.028
14.064668,-1.138,-9.814,-0.137
14.074457,-1.138,-9.866,-0.067
14.084246,-1.177,-9.866,-0.067
14.094035,-1.098,-9.912,-0.035
14.103824,-1.138,-9.919,0.004
14.113613,-1.138,-9.912,-0.035
14.123402,-1.138,-9.919,0.004
14.133199,-1.098,-9.937,-0.119
14.142996,-1.098,-9.989,-0.049
14.152793,-1.098,-9.989,-0.049
14.16259,-1.098,-10.035,-0.017
14.172387,-1.138,-9.996,-0.01
14.182184,-1.138,-10.028,-0.055
14.191981,-1.177,-10.028,-0.055
14.201778,-1.177,-10.066,-0.062
14.211575,-1.177,-10.028,-0.055
14.221372,-1.216,-10.021,-0.094
14.231169,-1.216,-10.055,0.099
14.240966,-1.255,-9.944,-0.08
14.250763,-1.255,-9.944,-0.08
14.26056,-1.255,-9.951,-0.042
14.270396,-1.255,-10.01,0.067
14.280232,-1.294,-9.971,0.074
14.290068,-1.294,-9.996,-0.01
14.299904,-1.294,-10.014,-0.133
14.30974,-1.294,-10.014,-0.133
14.319576,-1.294,-9.989,-0.049
14.329412,-1.294,-9.996,-0.01
14.339248,-1.334,-9.93,-0.158
14.349084,-1.294,-9.923,-0.196
14.35892,-1.255,-9.937,-0.119
14.368756,-1.294,-9.944,-0.08
14.378592,-1.334,-9.957,-0.003
14.388428,-1.334,-9.951,-0.042
14.398314,-1.294,-9.982,-0.087
14.4082,-1.294,-9.969,-0.164
14.418086,-1.334,-10.028,-0.055
14.427972,-1.334,-10.007,-0.171
14.437858,-1.334,-10.046,-0.178
14.447744,-1.294,-10.001,-0.21
14.45763,-1.334,-10.014,-0.133
14.467516,-1.294,-9.976,-0.126
14.477402,-1.294,-9.962,-0.203
14.487288,-1.294,-9.91,-0.274
14.497174,-1.255,-9.896,-0.351
14.50706,-1.294,-9.976,-0.126
14.516946,-1.255,-9.962,-0.203
14.526867,-1.294,-9.994,-0.249
14.536788,-1.294,-10.021,-0.094
14.546709,-1.255,-9.994,-0.249
14.55663,-1.255,-10.039,-0.217
14.566551,-1.294,-10.014,-0.133
14.576472,-1.255,-10.014,-0.133
14.586393,-1.294,-10.014,-0.133
14.596314,-1.255,-10.007,-0.171
14.606235,-1.255,-9.955,-0.242
14.616156,-1.255,-9.91,-0.274
14.626077,-1.255,-9.969,-0.164
14.635998,-1.294,-9.955,-0.242
14.645919,-1.255,-9.955,-0.242
14.65584,-1.255,-9.994,-0.249
14.66579,-1.255,-9.967,-0.403
14.67574,-1.255,-10.014,-0.133
14.68569,-1.216,-10.026,-0.294
14.69564,-1.255,-10.057,-0.339
14.70559,-1.255,-10.051,-0.378
14.71554,-1.255,-10.019,-0.333
14.72549,-1.255,-10.026,-0.294
14.73544,-1.294,-10.032,-0.255
14.74539,-1.294,-9.98,-0.326
14.75534,-1.294,-9.994,-0.249
14.76529,-1.294,-10.012,-0.371
14.77524,-1.255,-10.012,-0.371
14.78519,-1.255,-9.973,-0.364
14.79514,-1.255,-10.005,-0.41
14.80509,-1.216,-10.019,-0.333
14.81504,-1.255,-10.005,-0.41
14.825022,-1.255,-9.967,-0.403
14.835004,-1.255,-9.912,-0.712
14.844986,-1.334,-9.967,-0.403
14.854968,-1.294,-9.992,-0.487
14.86495,-1.255,-9.985,-0.526
14.874932,-1.216,-9.978,-0.564
14.884914,-1.216,-9.978,-0.564
14.894896,-1.216,-10.01,-0.61
14.904878,-1.255,-9.998,-0.449
14.91486,-1.216,-10.003,-0.648
14.924842,-1.255,-10.042,-0.655
14.934824,-1.216,-10.048,-0.617
14.944806,-1.138,-10.042,-0.655
14.954835,-1.138,-10.101,-0.546
14.964864,-1.098,-10.092,-0.823
14.974893,-1.098,-10.105,-0.746
14.984922,-1.098,-10.028,-0.733
14.994951,-1.098,-10.021,-0.771
15.00498,-1.138,-10.014,-0.81
15.015009,-1.138,-10.001,-0.887
15.025038,-1.138,-9.976,-0.803
15.035067,-1.177,-9.944,-0.758
15.045096,-1.177,-9.951,-0.719
15.055125,-1.177,-9.898,-0.789
15.065154,-1.177,-9.846,-0.86
15.075183,-1.216,-9.814,-0.814
15.085228,-1.177,-9.769,-0.846
15.095273,-1.216,-9.833,-0.937
15.105318,-1.177,-9.826,-0.976
15.115363,-1.177,-9.826,-0.976
15.125408,-1.216,-9.833,-0.937
15.135453,-1.216,-9.826,-0.976
15.145498,-1.216,-9.858,-1.021
15.155543,-1.177,-9.844,-1.098
15.165588,-1.177,-9.883,-1.105
15.175633,-1.177,-9.876,-1.144
15.185678,-1.216,-9.935,-1.035
15.195723,-1.216,-9.914,-1.151
15.205768,-1.216,-9.946,-1.196
15.215813,-1.177,-9.908,-1.189
15.225876,-1.216,-9.862,-1.221
15.235939,-1.177,-9.883,-1.105
15.246002,-1.177,-9.855,-1.26
15.256065,-1.177,-9.887,-1.305
15.266128,-1.216,-9.835,-1.376
15.276191,-1.216,-9.855,-1.26
15.286254,-1.255,-9.823,-1.214
15.296317,-1.216,-9.817,-1.253
15.30638,-1.255,-9.817,-1.253
15.316443,-1.216,-9.803,-1.33
15.326506,-1.255,-9.817,-1.253
15.336569,-1.255,-9.796,-1.369
15.346632,-1.216,-9.792,-1.169
15.35671,-1.216,-9.785,-1.208
15.366788,-1.255,-9.803,-1.33
15.376866,-1.255,-9.803,-1.33
15.386944,-1.255,-9.803,-1.33
15.397022,-1.294,-9.817,-1.253
15.4071,-1.334,-9.764,-1.323
15.417178,-1.334,-9.81,-1.292
15.427256,-1.334,-9.855,-1.26
15.437334,-1.373,-9.848,-1.298
15.447412,-1.373,-9.855,-1.26
15.45749,-1.294,-9.894,-1.267
15.467568,-1.294,-9.88,-1.344
15.477646,-1.334,-9.828,-1.414
15.487732,-1.334,-9.828,-1.414
15.497818,-1.334,-9.808,-1.53
15.507904,-1.373,-9.848,-1.298
15.51799,-1.373,-9.848,-1.298
15.528076,-1.334,-9.842,-1.337
15.538162,-1.373,-9.823,-1.214
15.548248,-1.373,-9.771,-1.285
15.558334,-1.412,-9.778,-1.246
15.56842,-1.412,-9.778,-1.246
15.578506,-1.373,-9.803,-1.33
15.588592,-1.412,-9.81,-1.292
15.598678,-1.412,-9.848,-1.298
15.608764,-1.373,-9.81,-1.292
15.61885,-1.294,-9.817,-1.253
15.628914,-1.255,-9.798,-1.13
15.638978,-1.098,-9.712,-1.394
15.649042,-1.02,-9.649,-1.303
15.659106,-0.981,-9.649,-1.303
15.66917,-0.863,-9.61,-1.296
15.679234,-0.824,-9.655,-1.264
15.689298,-0.824,-9.642,-1.342
15.699362,-0.863,-9.642,-1.342
15.709426,-0.902,-9.726,-1.317
15.71949,-0.981,-9.744,-1.439
15.729554,-1.059,-9.744,-1.439
15.739618,-1.098,-9.737,-1.478
15.749682,-1.177,-9.764,-1.323
15.759735,-1.216,-9.712,-1.394
15.769788,-1.177,-9.667,-1.426
15.779841,-1.177,-9.649,-1.303
15.789894,-1.177,-9.624,-1.219
15.799947,-1.177,-9.571,-1.289
15.81,-1.177,-9.528,-1.083
15.820053,-1.138,-9.555,-0.928
15.830106,-1.098,-9.555,-0.928
15.840159,-1.138,-9.576,-0.812
15.850212,-1.177,-9.603,-0.658
15.860265,-1.177,-9.687,-0.633
15.870318,-1.177,-9.739,-0.562
15.880371,-1.177,-9.798,-0.453
15.890367,-1.216,-9.891,-0.151
15.900363,-1.294,-9.948,-0.28
15.910359,-1.294,-10.06,-0.101
15.920355,-1.373,-10.157,0.001
15.930351,-1.373,-10.294,0.097
15.940347,-1.412,-10.448,0.07
15.950343,-1.451,-10.56,0.249
15.960339,-1.53,-10.696,0.345
15.970335,-1.53,-10.728,0.299
15.980331,-1.569,-10.8,0.486
15.990327,-1.608,-10.878,0.472
16.000323,-1.608,-10.903,0.388
16.010319,-1.608,-10.941,0.381
16.020315,-1.648,-10.955,0.458
16.030287,-1.569,-10.884,0.511
16.040259,-1.569,-10.723,0.499
16.050231,-1.53,-10.723,0.499
16.060203,-1.53,-10.573,0.326
16.070175,-1.53,-10.489,0.301
16.080147,-1.491,-10.353,0.206
16.090119,-1.451,-10.237,0.226
16.100091,-1.412,-10.094,0.092
16.110063,-1.334,-10.08,0.015
16.120035,-1.334,-10.041,0.022
16.130007,-1.255,-9.982,-0.087
16.139979,-1.216,-9.923,-0.196
16.149951,-1.177,-9.91,-0.274
16.15987,-1.098,-9.869,-0.505
16.169789,-1.098,-9.862,-0.544
16.179708,-1.098,-9.83,-0.499
16.189627,-1.059,-9.828,-0.737
16.199546,-1.098,-9.814,-0.814
16.209465,-1.059,-9.808,-0.853
16.219384,-1.02,-9.814,-0.814
16.229303,-1.02,-9.776,-0.808
16.239222,-1.02,-9.71,-0.955
16.249141,-1.02,-9.717,-0.917
16.25906,-1.02,-9.735,-1.039
16.268979,-0.981,-9.735,-1.039
16.278898,-0.981,-9.728,-1.078
16.288817,-0.981,-9.728,-1.078
16.298686,-0.981,-9.689,-1.071
16.308555,-0.981,-9.728,-1.078
16.318424,-0.941,-9.696,-1.033
16.328293,-1.02,-9.689,-1.071
16.338162,-1.02,-9.708,-1.194
16.348031,-1.059,-9.708,-1.194
16.3579,-1.02,-9.785,-1.208
16.367769,-1.02,-9.81,-1.292
16.377638,-1.059,-9.848,-1.298
16.387507,-1.02,-9.876,-1.144
16.397376,-1.059,-9.837,-1.137
16.407245,-1.059,-9.798,-1.13
16.417114,-1.059,-9.805,-1.092
16.426942,-1.059,-9.826,-0.976
16.43677,-1.059,-9.737,-0.801
16.446598,-1.02,-9.805,-1.092
16.456426,-0.981,-9.944,-0.758
16.466254,-1.059,-9.705,-0.755
16.476082,-1.138,-9.953,-1.158
16.48591,-1.059,-10.042,-0.655
16.495738,-1.138,-9.901,-0.551
16.505566,-1.177,-9.998,-1.126
16.515394,-1.098,-10.328,-1.064
16.525222,-1.059,-10.419,-1.001
16.53505,-1.098,-10.073,-0.701
16.544878,-1.098,-10.073,-0.701
16.554706,-1.138,-10.064,-0.978
16.564526,-1.059,-10.301,-1.219
16.574346,-1.138,-10.044,-0.417
16.584166,-1.177,-10.037,-1.132
16.593986,-1.098,-10.251,-1.051
16.603806,-1.216,-10.085,-0.862
16.613626,-1.177,-10.28,-1.335
16.623446,-1.098,-10.067,-0.739
16.633266,-1.177,-10.171,-1.276
16.643086,-1.177,-10.001,-0.887
16.652906,-1.138,-10.133,-1.269
16.662726,-1.098,-10.051,-1.055
16.672546,-1.02,-10.089,-1.062
16.682366,-1.02,-10.087,-1.301
16.692186,-0.981,-10.094,-1.262
16.702008,-1.02,-9.996,-1.364
16.71183,-1.02,-9.912,-1.389
16.721652,-0.941,-9.912,-1.389
16.731474,-0.902,-9.88,-1.344
16.741296,-0.863,-9.846,-1.537
16.751118,-0.902,-9.762,-1.562
16.76094,-0.902,-9.724,-1.555
16.770762,-0.863,-9.653,-1.503
16.780584,-0.824,-9.614,-1.496
16.790406,-0.745,-9.601,-1.573
16.800228,-0.706,-9.569,-1.528
16.81005,-0.706,-9.569,-1.528
16.819872,-0.745,-9.608,-1.535
16.829696,-0.667,-9.653,-1.503
16.83952,-0.628,-9.719,-1.355
16.849344,-0.628,-9.737,-1.478
16.859168,-0.628,-9.903,-1.667
16.868992,-0.628,-9.787,-1.646
16.878816,-0.628,-9.864,-1.66
16.88864,-0.628,-9.98,-1.68
16.898464,-0.628,-10.026,-1.648
16.908288,-0.667,-9.98,-1.68
16.918112,-0.667,-10.005,-1.764
16.927936,-0.706,-9.935,-1.712
16.93776,-0.706,-9.876,-1.821
16.947584,-0.785,-9.858,-1.698
16.957408,-0.824,-9.799,-1.807
16.967239,-0.824,-9.805,-1.769
16.97707,-0.824,-9.826,-1.653
16.986901,-0.824,-9.858,-1.698
16.996732,-0.785,-9.883,-1.782
17.006563,-0.824,-9.914,-1.828
17.016394,-0.863,-9.914,-1.828
17.026225,-0.824,-9.883,-1.782
17.036056,-0.824,-9.876,-1.821
17.045887,-0.824,-9.903,-1.667
17.055718,-0.824,-9.837,-1.814
17.065549,-0.863,-9.91,-1.628
17.07538,-0.863,-9.914,-1.828
17.085211,-0.902,-10.008,-1.526
17.09506,-0.902,-10.012,-1.726
17.104909,-0.902,-10.053,-1.494
17.114758,-0.863,-10.046,-1.532
17.124607,-0.902,-10.092,-1.501
17.134456,-0.902,-10.098,-1.462
17.144305,-0.902,-10.151,-1.392
17.154154,-0.902,-10.203,-1.321
17.164003,-0.941,-10.189,-1.398
17.173852,-0.902,-10.235,-1.367
17.183701,-0.902,-10.176,-1.476
17.19355,-0.941,-10.214,-1.482
17.203399,-0.981,-10.169,-1.514
17.213248,-0.941,-10.148,-1.63
17.223088,-0.941,-10.117,-1.585
17.232928,-0.981,-9.974,-1.719
17.242768,-0.981,-9.992,-1.841
17.252608,-0.981,-9.901,-1.905
17.262448,-0.981,-9.869,-1.86
17.272288,-1.02,-9.828,-2.091
17.282128,-1.02,-9.79,-2.085
17.291968,-1.059,-9.801,-2.246
17.301808,-1.098,-9.885,-2.221
17.311648,-1.138,-9.787,-2.323
17.321488,-1.138,-9.749,-2.316
17.331328,-1.216,-9.728,-2.432
17.341168,-1.216,-9.735,-2.394
17.351008,-1.216,-9.676,-2.503
17.360848,-1.216,-9.662,-2.58
17.370687,-1.255,-9.617,-2.612
17.380526,-1.334,-9.599,-2.489
17.390365,-1.334,-9.558,-2.721
17.400204,-1.373,-9.54,-2.598
17.410043,-1.334,-9.481,-2.707
17.419882,-1.334,-9.41,-2.655
17.429721,-1.294,-9.371,-2.648
17.43956,-1.255,-9.371,-2.648
17.449399,-1.255,-9.365,-2.687
17.459238,-1.216,-9.344,-2.803
17.469077,-1.216,-9.383,-2.81
17.478916,-1.177,-9.376,-2.848
17.48876,-1.138,-9.428,-2.778
17.498604,-1.098,-9.415,-2.855
17.508448,-1.098,-9.506,-2.791
17.518292,-1.02,-9.447,-2.9
17.528136,-0.981,-9.478,-2.946
17.53798,-0.981,-9.499,-2.83
17.547824,-1.02,-9.524,-2.914
17.557668,-0.981,-9.531,-2.875
17.567512,-0.981,-9.544,-2.798
17.577356,-0.981,-9.61,-2.65
17.5872,-0.981,-9.583,-2.805
17.597044,-1.02,-9.615,-2.85
17.606888,-1.059,-9.642,-2.696
17.616755,-1.02,-9.621,-2.812
17.626622,-1.02,-9.583,-2.805
17.636489,-1.059,-9.59,-2.766
17.646356,-1.059,-9.596,-2.728
17.656223,-1.059,-9.61,-2.65
17.66609,-1.059,-9.596,-2.728
17.675957,-1.098,-9.642,-2.696
17.685824,-1.098,-9.681,-2.703
17.695691,-1.059,-9.681,-2.703
17.705558,-1.02,-9.674,-2.741
17.715425,-0.981,-9.681,-2.703
17.725292,-1.02,-9.719,-2.71
17.735159,-1.059,-9.66,-2.819
17.745068,-1.059,-9.628,-2.773
17.754977,-1.059,-9.694,-2.625
17.764886,-1.02,-9.687,-2.664
17.774795,-0.981,-9.719,-2.71
17.784704,-0.981,-9.694,-2.625
17.794613,-1.02,-9.674,-2.741
17.804522,-0.981,-9.726,-2.671
17.814431,-1.02,-9.712,-2.748
17.82434,-0.981,-9.726,-2.671
17.834249,-0.981,-9.712,-2.748
17.844158,-1.02,-9.694,-2.625
17.854067,-1.02,-9.687,-2.664
17.863976,-1.02,-9.674,-2.741
17.873891,-0.981,-9.635,-2.735
17.883806,-1.059,-9.687,-2.664
17.893721,-1.02,-9.662,-2.58
17.903636,-1.02,-9.649,-2.657
17.913551,-1.059,-9.719,-2.71
17.923466,-1.098,-9.746,-2.555
17.933381,-1.098,-9.74,-2.594
17.943296,-1.138,-9.733,-2.632
17.953211,-1.138,-9.746,-2.555
17.963126,-1.177,-9.687,-2.664
17.973041,-1.138,-9.701,-2.587
17.982956,-1.138,-9.708,-2.548
17.992871,-1.138,-9.662,-2.58
18.002786,-1.138,-9.662,-2.58
18.012701,-1.138,-9.662,-2.58
18.022642,-1.138,-9.656,-2.619
18.032583,-1.177,-9.669,-2.541
18.042524,-1.177,-9.662,-2.58
18.052465,-1.177,-9.662,-2.58
18.062406,-1.177,-9.681,-2.703
18.072347,-1.177,-9.649,-2.657
18.082288,-1.098,-9.624,-2.573
18.092229,-1.098,-9.624,-2.573
18.10217,-1.138,-9.599,-2.489
18.112111,-1.098,-9.585,-2.566
18.122052,-1.098,-9.637,-2.496
18.131993,-1.098,-9.728,-2.432
18.141934,-1.138,-9.721,-2.471
18.151896,-1.098,-9.676,-2.503
18.161858,-1.059,-9.742,-2.355
18.17182,-1.02,-9.767,-2.439
18.181782,-1.059,-9.805,-2.446
18.191744,-1.059,-9.753,-2.516
18.201706,-1.098,-9.805,-2.446
18.211668,-1.098,-9.778,-2.6
18.22163,-1.098,-9.799,-2.485
18.231592,-1.098,-9.799,-2.485
18.241554,-1.098,-9.824,-2.569
18.251516,-1.138,-9.792,-2.523
18.261478,-1.098,-9.799,-2.485
18.27144,-1.138,-9.767,-2.439
18.281402,-1.138,-9.805,-2.446
18.291364,-1.177,-9.785,-2.562
18.301326,-1.177,-9.696,-2.387
18.311288,-1.177,-9.669,-2.541
18.32125,-1.177,-9.637,-2.496
18.331212,-1.216,-9.683,-2.464
18.341174,-1.216,-9.669,-2.541
18.351136,-1.216,-9.656,-2.619
18.361098,-1.216,-9.669,-2.541
18.37106,-1.216,-9.637,-2.496
18.381022,-1.216,-9.696,-2.387
18.390984,-1.177,-9.656,-2.619
18.400946,-1.177,-9.662,-2.58
18.410908,-1.177,-9.715,-2.51
18.420867,-1.216,-9.721,-2.471
18.430826,-1.216,-9.728,-2.432
18.440785,-1.216,-9.735,-2.394
18.450744,-1.216,-9.728,-2.432
18.460703,-1.216,-9.728,-2.432
18.470662,-1.216,-9.735,-2.394
18.480621,-1.177,-9.701,-2.587
18.49058,-1.138,-9.753,-2.516
18.500539,-1.138,-9.805,-2.446
18.510498,-1.138,-9.799,-2.485
18.520457,-1.177,-9.721,-2.471
18.530416,-1.138,-9.735,-2.394
18.540375,-1.138,-9.721,-2.471
18.550336,-1.098,-9.74,-2.594
18.560297,-1.177,-9.774,-2.4
18.570258,-1.216,-9.721,-2.471
18.580219,-1.216,-9.735,-2.394
18.59018,-1.216,-9.69,-2.426
18.600141,-1.216,-9.721,-2.471
18.610102,-1.216,-9.78,-2.362
18.620063,-1.216,-9.749,-2.316
18.630024,-1.216,-9.767,-2.439
18.639985,-1.216,-9.812,-2.407
18.649946,-1.216,-9.799,-2.485
18.659907,-1.216,-9.84,-2.253
18.669868,-1.255,-9.787,-2.323
18.679838,-1.216,-9.742,-2.355
18.689808,-1.177,-9.715,-2.51
18.699778,-1.216,-9.735,-2.394
18.709748,-1.255,-9.703,-2.348
18.719718,-1.255,-9.69,-2.426
18.729688,-1.216,-9.651,-2.419
18.739658,-1.216,-9.651,-2.419
18.749628,-1.255,-9.69,-2.426
18.759598,-1.216,-9.715,-2.51
18.769568,-1.255,-9.715,-2.51
18.779538,-1.216,-9.721,-2.471
18.789508,-1.255,-9.676,-2.503
18.799478,-1.294,-9.683,-2.464
18.80946,-1.334,-9.644,-2.457
18.819442,-1.294,-9.665,-2.341
18.829424,-1.255,-9.651,-2.419
18.839406,-1.294,-9.651,-2.419
18.849388,-1.294,-9.637,-2.496
18.85937,-1.334,-9.651,-2.419
18.869352,-1.373,-9.651,-2.419
18.879334,-1.373,-9.69,-2.426
18.889316,-1.373,-9.728,-2.432
18.899298,-1.373,-9.715,-2.51
18.90928,-1.373,-9.721,-2.471
18.919262,-1.412,-9.735,-2.394
18.929244,-1.412,-9.735,-2.394
18.939242,-1.412,-9.696,-2.387
18.94924,-1.412,-9.669,-2.541
18.959238,-1.412,-9.644,-2.457
18.969236,-1.412,-9.644,-2.457
18.979234,-1.412,-9.612,-2.412
18.989232,-1.412,-9.651,-2.419
18.99923,-1.412,-9.644,-2.457
19.009228,-1.373,-9.683,-2.464
19.019226,-1.373,-9.69,-2.426
19.029224,-1.373,-9.774,-2.4
19.039222,-1.334,-9.721,-2.471
19.04922,-1.373,-9.728,-2.432
19.059218,-1.373,-9.728,-2.432
19.069193,-1.373,-9.71,-2.31
19.079168,-1.373,-9.606,-2.451
19.089143,-1.373,-9.612,-2.412
19.099118,-1.373,-9.665,-2.341
19.109093,-1.334,-9.606,-2.451
19.119068,-1.334,-9.58,-2.366
19.129043,-1.373,-9.619,-2.373
19.139018,-1.334,-9.696,-2.387
19.148993,-1.373,-9.665,-2.341
19.158968,-1.334,-9.742,-2.355
19.168943,-1.334,-9.801,-2.246
19.178918,-1.334,-9.787,-2.323
19.188893,-1.334,-9.774,-2.4
19.198868,-1.334,-9.826,-2.33
19.208845,-1.334,-9.828,-2.091
19.218822,-1.334,-9.819,-2.369
19.228799,-1.334,-9.78,-2.362
19.238776,-1.294,-9.826,-2.33
19.248753,-1.216,-9.787,-2.323
19.25873,-1.216,-9.787,-2.323
19.268707,-1.216,-9.794,-2.285
19.278684,-1.255,-9.728,-2.432
19.288661,-1.255,-9.749,-2.316
19.298638,-1.255,-9.71,-2.31
19.308615,-1.294,-9.683,-2.464
19.318592,-1.334,-9.742,-2.355
19.328569,-1.334,-9.71,-2.31
19.338546,-1.294,-9.69,-2.426
19.348523,-1.294,-9.701,-2.587
19.3585,-1.216,-9.71,-2.31
19.368477,-1.294,-9.678,-2.264
19.378454,-1.334,-9.685,-2.226
19.388431,-1.294,-9.717,-2.271
19.398408,-1.294,-9.749,-2.316
19.408385,-1.294,-9.728,-2.432
19.418362,-1.334,-9.742,-2.355
19.428339,-1.373,-9.787,-2.323
19.438316,-1.373,-9.755,-2.278
19.448293,-1.373,-9.762,-2.239
19.45827,-1.373,-9.703,-2.348
19.468247,-1.334,-9.755,-2.278
19.478226,-1.334,-9.769,-2.201
19.488205,-1.334,-9.755,-2.278
19.498184,-1.334,-9.755,-2.278
19.508163,-1.294,-9.749,-2.316
19.518142,-1.334,-9.787,-2.323
19.528121,-1.294,-9.78,-2.362
19.5381,-1.334,-9.755,-2.278
19.548079,-1.294,-9.755,-2.278
19.558058,-1.294,-9.717,-2.271
19.568037,-1.255,-9.724,-2.232
19.578016,-1.294,-9.703,-2.348
19.587995,-1.294,-9.71,-2.31
19.597974,-1.294,-9.724,-2.232
19.607939,-1.294,-9.762,-2.239
19.617904,-1.294,-9.728,-2.432
19.627869,-1.294,-9.755,-2.278
19.637834,-1.294,-9.755,-2.278
19.647799,-1.334,-9.787,-2.323
19.657764,-1.334,-9.735,-2.394
19.667729,-1.373,-9.703,-2.348
19.677694,-1.334,-9.665,-2.341
19.687659,-1.334,-9.678,-2.264
19.697624,-1.373,-9.696,-2.387
19.707589,-1.373,-9.665,-2.341
19.717554,-1.412,-9.71,-2.31
19.727519,-1.412,-9.724,-2.232
19.737484,-1.412,-9.71,-2.31
19.74744,-1.373,-9.715,-2.51
19.757396,-1.373,-9.703,-2.348
19.767352,-1.412,-9.717,-2.271
19.777308,-1.451,-9.717,-2.271
19.787264,-1.412,-9.717,-2.271
19.79722,-1.373,-9.735,-2.394
19.807176,-1.373,-9.696,-2.387
19.817132,-1.334,-9.71,-2.31
19.827088,-1.373,-9.71,-2.31
19.837044,-1.373,-9.671,-2.303
19.847,-1.373,-9.71,-2.31
19.856956,-1.334,-9.71,-2.31
19.866912,-1.373,-9.71,-2.31
19.876871,-1.373,-9.703,-2.348
19.88683,-1.334,-9.749,-2.316
19.896789,-1.334,-9.755,-2.278
19.906748,-1.294,-9.735,-2.394
19.916707,-1.334,-9.762,-2.239
19.926666,-1.334,-9.794,-2.285
19.936625,-1.334,-9.742,-2.355
19.946584,-1.334,-9.78,-2.362
19.956543,-1.294,-9.742,-2.355
19.966502,-1.373,-9.735,-2.394
19.976461,-1.373,-9.735,-2.394
19.98642,-1.334,-9.717,-2.271
19.996379,-1.373,-9.665,-2.341
20.006303,-1.294,-9.665,-2.341
20.016227,-1.294,-9.658,-2.38
20.026151,-1.373,-9.703,-2.348
20.036075,-1.334,-9.71,-2.31
20.045999,-1.373,-9.735,-2.394
20.055923,-1.334,-9.742,-2.355
20.065847,-1.334,-9.735,-2.394
20.075771,-1.334,-9.717,-2.271
20.085695,-1.294,-9.671,-2.303
20.095619,-1.294,-9.651,-2.419
20.105543,-1.294,-9.685,-2.226
20.115467,-1.255,-9.626,-2.335
20.125391,-1.294,-9.64,-2.257
20.135315,-1.334,-9.626,-2.335
20.145239,-1.334,-9.633,-2.296
20.155131,-1.294,-9.64,-2.257
20.165023,-1.334,-9.71,-2.31
20.174915,-1.334,-9.685,-2.226
20.184807,-1.294,-9.678,-2.264
20.194699,-1.294,-9.776,-2.162
20.204591,-1.255,-9.717,-2.271
20.214483,-1.255,-9.801,-2.246
20.224375,-1.255,-9.755,-2.278
20.234267,-1.255,-9.755,-2.278
20.244159,-1.216,-9.801,-2.246
20.254051,-1.216,-9.794,-2.285
20.263943,-1.177,-9.794,-2.285
20.273818,-1.255,-9.762,-2.239
20.283693,-1.294,-9.828,-2.091
20.293568,-1.255,-9.755,-2.278
20.303443,-1.216,-9.801,-2.246
20.313318,-1.255,-9.794,-2.285
20.323193,-1.294,-9.749,-2.316
20.333068,-1.255,-9.776,-2.162
20.342943,-1.294,-9.742,-2.355
20.352818,-1.255,-9.78,-2.362
20.362693,-1.255,-9.78,-2.362
20.372568,-1.294,-9.742,-2.355
20.382443,-1.294,-9.749,-2.316
20.392318,-1.294,-9.717,-2.271
20.402188,-1.294,-9.678,-2.264
20.412058,-1.255,-9.71,-2.31
20.421928,-1.255,-9.73,-2.194
20.431798,-1.294,-9.71,-2.31
20.441668,-1.294,-9.801,-2.246
20.451538,-1.294,-9.724,-2.232
20.461408,-1.255,-9.762,-2.239
20.471278,-1.255,-9.755,-2.278
20.481148,-1.294,-9.762,-2.239
20.491018,-1.294,-9.769,-2.201
20.500888,-1.294,-9.762,-2.239
20.510758,-1.294,-9.801,-2.246
20.520628,-1.255,-9.794,-2.285
20.530528,-1.255,-9.783,-2.123
20.540428,-1.177,-9.769,-2.201
20.550328,-1.255,-9.742,-2.355
20.560228,-1.177,-9.801,-2.246
20.570128,-1.216,-9.71,-2.31
20.580028,-1.255,-9.724,-2.232
20.589928,-1.255,-9.671,-2.303
20.599828,-1.255,-9.665,-2.341
20.609728,-1.255,-9.665,-2.341
20.619628,-1.255,-9.71,-2.31
20.629528,-1.216,-9.71,-2.31
20.639428,-1.255,-9.749,-2.316
20.649328,-1.294,-9.755,-2.278
20.659202,-1.255,-9.685,-2.226
20.669076,-1.255,-9.703,-2.348
20.67895,-1.216,-9.612,-2.412
20.688824,-1.216,-9.665,-2.341
20.698698,-1.255,-9.703,-2.348
20.708572,-1.255,-9.721,-2.471
20.718446,-1.255,-9.742,-2.355
20.72832,-1.216,-9.717,-2.271
20.738194,-1.255,-9.703,-2.348
20.748068,-1.255,-9.76,-2.478
20.757942,-1.255,-9.753,-2.516
20.767816,-1.255,-9.787,-2.323
20.77769,-1.255,-9.78,-2.362
20.787564,-1.255,-9.742,-2.355
20.797439,-1.255,-9.749,-2.316
20.807314,-1.294,-9.742,-2.355
20.817189,-1.255,-9.696,-2.387
20.827064,-1.294,-9.703,-2.348
20.836939,-1.255,-9.696,-2.387
20.846814,-1.255,-9.651,-2.419
20.856689,-1.255,-9.612,-2.412
20.866564,-1.255,-9.644,-2.457
20.876439,-1.216,-9.69,-2.426
20.886314,-1.255,-9.703,-2.348
20.896189,-1.294,-9.665,-2.341
20.906064,-1.294,-9.742,-2.355
20.915939,-1.294,-9.742,-2.355
20.925806,-1.334,-9.683,-2.464
20.935673,-1.334,-9.728,-2.432
20.94554,-1.334,-9.69,-2.426
20.955407,-1.294,-9.735,-2.394
20.965274,-1.294,-9.703,-2.348
20.975141,-1.294,-9.696,-2.387
20.985008,-1.294,-9.658,-2.38
20.994875,-1.255,-9.665,-2.341
21.004742,-1.294,-9.644,-2.457
21.014609,-1.334,-9.671,-2.303
21.024476,-1.334,-9.78,-2.362
21.034343,-1.373,-9.703,-2.348
21.04421,-1.334,-9.676,-2.503
21.054077,-1.334,-9.735,-2.394
21.063956,-1.255,-9.715,-2.51
21.073835,-1.255,-9.755,-2.278
21.083714,-1.255,-9.696,-2.387
21.093593,-1.255,-9.696,-2.387
21.103472,-1.255,-9.703,-2.348
21.113351,-1.294,-9.696,-2.387
21.12323,-1.294,-9.696,-2.387
21.133109,-1.294,-9.71,-2.31
21.142988,-1.294,-9.769,-2.201
21.152867,-1.294,-9.749,-2.316
21.162746,-1.255,-9.749,-2.316
21.172625,-1.255,-9.749,-2.316
21.182504,-1.216,-9.794,-2.285
21.192383,-1.216,-9.801,-2.246
21.202278,-1.255,-9.774,-2.4
21.212173,-1.216,-9.86,-2.137
21.222068,-1.255,-9.815,-2.169
21.231963,-1.255,-9.749,-2.316
21.241858,-1.255,-9.749,-2.316
21.251753,-1.255,-9.774,-2.4
21.261648,-1.294,-9.78,-2.362
21.271543,-1.294,-9.794,-2.285
21.281438,-1.294,-9.742,-2.355
21.291333,-1.294,-9.717,-2.271
21.301228,-1.294,-9.73,-2.194
21.311123,-1.334,-9.724,-2.232
21.321018,-1.373,-9.735,-2.394
21.330905,-1.412,-9.774,-2.4
21.340792,-1.412,-9.755,-2.278
21.350679,-1.373,-9.749,-2.316
21.360566,-1.334,-9.71,-2.31
21.370453,-1.334,-9.671,-2.303
21.38034,-1.294,-9.696,-2.387
21.390227,-1.294,-9.658,-2.38
21.400114,-1.294,-9.665,-2.341
21.410001,-1.255,-9.646,-2.219
21.419888,-1.294,-9.665,-2.341
21.429775,-1.334,-9.678,-2.264
21.439662,-1.334,-9.703,-2.348
21.449549,-1.334,-9.71,-2.31
21.459436,-1.334,-9.703,-2.348
21.469317,-1.334,-9.715,-2.51
21.479198,-1.334,-9.696,-2.387
21.489079,-1.334,-9.717,-2.271
21.49896,-1.294,-9.776,-2.162
21.508841,-1.294,-9.755,-2.278
21.518722,-1.255,-9.78,-2.362
21.528603,-1.294,-9.755,-2.278
21.538484,-1.294,-9.755,-2.278
21.548365,-1.255,-9.749,-2.316
21.558246,-1.255,-9.755,-2.278
21.568127,-1.216,-9.749,-2.316
21.578008,-1.255,-9.703,-2.348
21.587889,-1.216,-9.735,-2.394
21.597784,-1.216,-9.724,-2.232
21.607679,-1.177,-9.703,-2.348
21.617574,-1.216,-9.749,-2.316
21.627469,-1.255,-9.749,-2.316
21.637364,-1.255,-9.703,-2.348
21.647259,-1.255,-9.755,-2.278
21.657154,-1.255,-9.749,-2.316
21.667049,-1.216,-9.774,-2.4
21.676944,-1.216,-9.742,-2.355
21.686839,-1.255,-9.787,-2.323
21.696734,-1.294,-9.749,-2.316
21.706629,-1.294,-9.735,-2.394
21.716524,-1.255,-9.71,-2.31
21.726452,-1.294,-9.683,-2.464
21.73638,-1.255,-9.651,-2.419
21.746308,-1.294,-9.71,-2.31
21.756236,-1.334,-9.749,-2.316
21.766164,-1.334,-9.717,-2.271
21.776092,-1.294,-9.665,-2.341
21.78602,-1.294,-9.658,-2.38
21.795948,-1.294,-9.69,-2.426
21.805876,-1.334,-9.696,-2.387
21.815804,-1.334,-9.696,-2.387
21.825732,-1.334,-9.735,-2.394
21.83566,-1.294,-9.703,-2.348
21.845588,-1.334,-9.742,-2.355
21.855516,-1.334,-9.755,-2.278
21.865499,-1.294,-9.769,-2.201
21.875482,-1.334,-9.783,-2.123
21.885465,-1.294,-9.735,-2.394
21.895448,-1.334,-9.755,-2.278
21.905431,-1.334,-9.762,-2.239
21.915414,-1.334,-9.794,-2.285
21.925397,-1.334,-9.735,-2.394
21.93538,-1.334,-9.755,-2.278
21.945363,-1.373,-9.742,-2.355
21.955346,-1.334,-9.703,-2.348
21.965329,-1.334,-9.703,-2.348
21.975312,-1.334,-9.703,-2.348
21.985295,-1.334,-9.69,-2.426
21.995278,-1.334,-9.703,-2.348
22.005261,-1.294,-9.749,-2.316
22.015244,-1.334,-9.742,-2.355
22.025227,-1.334,-9.735,-2.394
22.03521,-1.294,-9.728,-2.432
22.045193,-1.334,-9.755,-2.278
22.055176,-1.294,-9.735,-2.394
22.065159,-1.255,-9.717,-2.271
22.075142,-1.255,-9.678,-2.264
22.085125,-1.255,-9.658,-2.38
22.095108,-1.255,-9.665,-2.341
22.105091,-1.294,-9.619,-2.373
22.115074,-1.334,-9.665,-2.341
22.125046,-1.334,-9.71,-2.31
22.135018,-1.334,-9.71,-2.31
22.14499,-1.334,-9.755,-2.278
22.154962,-1.373,-9.762,-2.239
22.164934,-1.412,-9.755,-2.278
22.174906,-1.412,-9.742,-2.355
22.184878,-1.373,-9.749,-2.316
22.19485,-1.373,-9.769,-2.201
22.204822,-1.334,-9.801,-2.246
22.214794,-1.334,-9.801,-2.246
22.224766,-1.334,-9.749,-2.316
22.234738,-1.294,-9.749,-2.316
22.24471,-1.294,-9.749,-2.316
22.254688,-1.294,-9.735,-2.394
22.264666,-1.334,-9.696,-2.387
22.274644,-1.294,-9.703,-2.348
22.284622,-1.294,-9.749,-2.316
22.2946,-1.294,-9.71,-2.31
22.304578,-1.255,-9.665,-2.341
22.314556,-1.255,-9.633,-2.296
22.324534,-1.294,-9.612,-2.412
22.334512,-1.334,-9.651,-2.419
22.34449,-1.373,-9.735,-2.394
22.354468,-1.373,-9.696,-2.387
22.364446,-1.334,-9.703,-2.348
22.374424,-1.373,-9.703,-2.348
22.384407,-1.412,-9.665,-2.341
22.39439,-1.373,-9.671,-2.303
22.404373,-1.412,-9.644,-2.457
22.414356,-1.373,-9.665,-2.341
22.424339,-1.373,-9.71,-2.31
22.434322,-1.412,-9.749,-2.316
22.444305,-1.412,-9.749,-2.316
22.454288,-1.412,-9.749,-2.316
22.464271,-1.412,-9.749,-2.316
22.474254,-1.412,-9.717,-2.271
22.484237,-1.373,-9.755,-2.278
22.49422,-1.373,-9.742,-2.355
22.504203,-1.334,-9.71,-2.31
22.514186,-1.294,-9.742,-2.355
22.524169,-1.294,-9.696,-2.387
22.534152,-1.334,-9.755,-2.278
22.544135,-1.334,-9.735,-2.394
22.554118,-1.334,-9.742,-2.355
22.564101,-1.334,-9.749,-2.316
22.574084,-1.294,-9.742,-2.355
22.584067,-1.294,-9.717,-2.271
22.59405,-1.294,-9.665,-2.341
22.604033,-1.294,-9.71,-2.31
22.614016,-1.294,-9.69,-2.426
22.623999,-1.294,-9.749,-2.316
22.633982,-1.255,-9.755,-2.278
22.64394,-1.334,-9.755,-2.278
22.653898,-1.294,-9.749,-2.316
22.663856,-1.294,-9.742,-2.355
22.673814,-1.334,-9.794,-2.285
22.683772,-1.334,-9.774,-2.4
22.69373,-1.373,-9.749,-2.316
22.703688,-1.334,-9.703,-2.348
22.713646,-1.294,-9.69,-2.426
22.723604,-1.294,-9.665,-2.341
22.733562,-1.294,-9.735,-2.394
22.74352,-1.334,-9.774,-2.4
22.753478,-1.334,-9.742,-2.355
22.763436,-1.294,-9.69,-2.426
22.773394,-1.294,-9.69,-2.426
22.783352,-1.334,-9.69,-2.426
22.79331,-1.373,-9.69,-2.426
22.803268,-1.373,-9.703,-2.348
22.813226,-1.373,-9.71,-2.31
22.823184,-1.334,-9.658,-2.38
22.833142,-1.294,-9.678,-2.264
22.8431,-1.334,-9.658,-2.38
22.853058,-1.334,-9.658,-2.38
22.863016,-1.334,-9.71,-2.31
22.872974,-1.373,-9.696,-2.387
22.882932,-1.334,-9.71,-2.31
22.89289,-1.373,-9.703,-2.348
22.902848,-1.373,-9.735,-2.394
22.912809,-1.334,-9.717,-2.271
22.92277,-1.373,-9.724,-2.232
22.932731,-1.294,-9.742,-2.355
22.942692,-1.334,-9.742,-2.355
22.952653,-1.334,-9.742,-2.355
22.962614,-1.373,-9.787,-2.323
22.972575,-1.373,-9.787,-2.323
22.982536,-1.334,-9.735,-2.394
22.992497,-1.334,-9.71,-2.31
23.002458,-1.334,-9.755,-2.278
23.012419,-1.294,-9.742,-2.355
23.02238,-1.294,-9.742,-2.355
23.032341,-1.294,-9.703,-2.348
23.042273,-1.294,-9.742,-2.355
23.052205,-1.294,-9.721,-2.471
23.062137,-1.255,-9.742,-2.355
23.072069,-1.255,-9.78,-2.362
23.082001,-1.255,-9.78,-2.362
23.091933,-1.255,-9.78,-2.362
23.101865,-1.255,-9.728,-2.432
23.111797,-1.216,-9.742,-2.355
23.121729,-1.255,-9.665,-2.341
23.131661,-1.294,-9.69,-2.426
23.141593,-1.255,-9.717,-2.271
23.151525,-1.294,-9.703,-2.348
23.161457,-1.334,-9.724,-2.232
23.171389,-1.334,-9.724,-2.232
23.181299,-1.373,-9.696,-2.387
23.191209,-1.373,-9.749,-2.316
23.201119,-1.373,-9.742,-2.355
23.211029,-1.373,-9.755,-2.278
23.220939,-1.412,-9.755,-2.278
23.230849,-1.334,-9.742,-2.355
23.240759,-1.373,-9.787,-2.323
23.250669,-1.334,-9.742,-2.355
23.260579,-1.334,-9.762,-2.239
23.270489,-1.334,-9.78,-2.362
23.280399,-1.334,-9.78,-2.362
23.290309,-1.294,-9.767,-2.439
23.300219,-1.294,-9.787,-2.323
23.310074,-1.334,-9.787,-2.323
23.319929,-1.255,-9.651,-2.419
23.329784,-1.294,-9.676,-2.503
23.339639,-1.294,-9.633,-2.296
23.349494,-1.294,-9.658,-2.38
23.359349,-1.294,-9.626,-2.335
23.369204,-1.373,-9.665,-2.341
23.379059,-1.373,-9.665,-2.341
23.388914,-1.373,-9.644,-2.457
23.398769,-1.373,-9.651,-2.419
23.408624,-1.412,-9.651,-2.419
23.418479,-1.373,-9.658,-2.38
23.428334,-1.412,-9.626,-2.335
23.438189,-1.334,-9.612,-2.412
23.447999,-1.334,-9.671,-2.303
23.457809,-1.412,-9.696,-2.387
23.467619,-1.373,-9.696,-2.387
23.477429,-1.334,-9.703,-2.348
23.487239,-1.334,-9.742,-2.355
23.497049,-1.334,-9.696,-2.387
23.506859,-1.334,-9.696,-2.387
23.516669,-1.294,-9.749,-2.316
23.526479,-1.334,-9.749,-2.316
23.536289,-1.334,-9.749,-2.316
23.546099,-1.294,-9.749,-2.316
23.555909,-1.294,-9.742,-2.355
23.565719,-1.294,-9.755,-2.278
23.575503,-1.294,-9.749,-2.316
23.585287,-1.294,-9.749,-2.316
23.595071,-1.255,-9.755,-2.278
23.604855,-1.294,-9.717,-2.271
23.614639,-1.255,-9.742,-2.355
23.624423,-1.255,-9.749,-2.316
23.634207,-1.255,-9.762,-2.239
23.643991,-1.255,-9.755,-2.278
23.653775,-1.216,-9.826,-2.33
23.663559,-1.216,-9.787,-2.323
23.673343,-1.255,-9.78,-2.362
23.683127,-1.294,-9.794,-2.285
23.692911,-1.334,-9.755,-2.278
23.702645,-1.334,-9.749,-2.316
23.712379,-1.294,-9.696,-2.387
23.722113,-1.294,-9.717,-2.271
23.731847,-1.294,-9.717,-2.271
23.741581,-1.294,-9.749,-2.316
23.751315,-1.294,-9.755,-2.278
23.761049,-1.294,-9.742,-2.355
23.770783,-1.255,-9.742,-2.355
23.780517,-1.294,-9.703,-2.348
23.790251,-1.294,-9.71,-2.31
23.799985,-1.294,-9.787,-2.323
23.809719,-1.294,-9.78,-2.362
23.819453,-1.294,-9.787,-2.323
23.829187,-1.255,-9.696,-2.387
23.838904,-1.255,-9.728,-2.432
23.848621,-1.255,-9.71,-2.31
23.858338,-1.255,-9.683,-2.464
23.868055,-1.294,-9.742,-2.355
23.877772,-1.255,-9.69,-2.426
23.887489,-1.255,-9.703,-2.348
23.897206,-1.216,-9.696,-2.387
23.906923,-1.216,-9.703,-2.348
23.91664,-1.255,-9.703,-2.348
23.926357,-1.255,-9.703,-2.348
23.936074,-1.255,-9.696,-2.387
23.945791,-1.294,-9.665,-2.341
23.955508,-1.255,-9.71,-2.31
23.965235,-1.294,-9.696,-2.387
23.974962,-1.294,-9.742,-2.355
23.984689,-1.255,-9.728,-2.432
23.994416,-1.255,-9.728,-2.432
24.004143,-1.294,-9.76,-2.478
24.01387,-1.255,-9.767,-2.439
24.023597,-1.294,-9.735,-2.394
24.033324,-1.294,-9.749,-2.316
24.043051,-1.294,-9.728,-2.432
24.052778,-1.255,-9.735,-2.394
24.062505,-1.216,-9.69,-2.426
24.072232,-1.255,-9.742,-2.355
24.081959,-1.216,-9.708,-2.548
24.091712,-1.177,-9.676,-2.503
24.101465,-1.177,-9.708,-2.548
24.111218,-1.177,-9.78,-2.362
24.120971,-1.177,-9.799,-2.485
24.130724,-1.216,-9.812,-2.407
24.140477,-1.255,-9.735,-2.394
24.15023,-1.216,-9.735,-2.394
24.159983,-1.216,-9.69,-2.426
24.169736,-1.216,-9.651,-2.419
24.179489,-1.255,-9.658,-2.38
24.189242,-1.294,-9.665,-2.341
24.198995,-1.334,-9.671,-2.303
24.208748,-1.373,-9.619,-2.373
24.218499,-1.334,-9.703,-2.348
24.22825,-1.334,-9.696,-2.387
24.238001,-1.334,-9.742,-2.355
24.247752,-1.334,-9.749,-2.316
24.257503,-1.255,-9.717,-2.271
24.267254,-1.294,-9.794,-2.285
24.277005,-1.294,-9.787,-2.323
24.286756,-1.294,-9.774,-2.4
24.296507,-1.334,-9.76,-2.478
24.306258,-1.334,-9.767,-2.439
24.316009,-1.294,-9.753,-2.516
24.32576,-1.294,-9.735,-2.394
24.335511,-1.255,-9.728,-2.432
24.345262,-1.294,-9.703,-2.348
24.355056,-1.294,-9.703,-2.348
24.36485,-1.294,-9.71,-2.31
24.374644,-1.255,-9.71,-2.31
24.384438,-1.294,-9.651,-2.419
24.394232,-1.334,-9.658,-2.38
24.404026,-1.334,-9.69,-2.426
24.41382,-1.334,-9.69,-2.426
24.423614,-1.294,-9.683,-2.464
24.433408,-1.334,-9.683,-2.464
24.443202,-1.334,-9.683,-2.464
24.452996,-1.334,-9.658,-2.38
24.46279,-1.294,-9.676,-2.503
24.472584,-1.294,-9.696,-2.387
24.482413,-1.255,-9.728,-2.432
24.492242,-1.255,-9.753,-2.516
24.502071,-1.255,-9.728,-2.432
24.5119,-1.294,-9.721,-2.471
24.521729,-1.216,-9.728,-2.432
24.531558,-1.255,-9.799,-2.485
24.541387,-1.255,-9.819,-2.369
24.551216,-1.255,-9.76,-2.478
24.561045,-1.216,-9.708,-2.548
24.570874,-1.138,-9.728,-2.432
24.580703,-1.138,-9.676,-2.503
24.590532,-1.177,-9.696,-2.387
24.600361,-1.177,-9.69,-2.426
24.610237,-1.177,-9.619,-2.373
24.620113,-1.177,-9.658,-2.38
24.629989,-1.177,-9.703,-2.348
24.639865,-1.138,-9.696,-2.387
24.649741,-1.216,-9.774,-2.4
24.659617,-1.255,-9.812,-2.407
24.669493,-1.255,-9.837,-2.491
24.679369,-1.255,-9.89,-2.421
24.689245,-1.216,-9.837,-2.491
24.699121,-1.216,-9.89,-2.421
24.708997,-1.255,-9.812,-2.407
24.718873,-1.216,-9.805,-2.446
24.728749,-1.177,-9.792,-2.523
24.738679,-1.177,-9.721,-2.471
24.748609,-1.138,-9.726,-2.671
24.758539,-1.138,-9.687,-2.664
24.768469,-1.138,-9.715,-2.51
24.778399,-1.138,-9.669,-2.541
24.788329,-1.138,-9.617,-2.612
24.798259,-1.098,-9.606,-2.451
24.808189,-1.098,-9.637,-2.496
24.818119,-1.098,-9.631,-2.535
24.828049,-1.138,-9.631,-2.535
24.837979,-1.138,-9.61,-2.65
24.847909,-1.177,-9.624,-2.573
24.857839,-1.177,-9.624,-2.573
24.867769,-1.138,-9.624,-2.573
24.877728,-1.216,-9.701,-2.587
24.887687,-1.255,-9.628,-2.773
24.897646,-1.255,-9.669,-2.541
24.907605,-1.255,-9.649,-2.657
24.917564,-1.216,-9.649,-2.657
24.927523,-1.216,-9.61,-2.65
24.937482,-1.255,-9.603,-2.689
24.947441,-1.216,-9.596,-2.728
24.9574,-1.255,-9.635,-2.735
24.967359,-1.255,-9.649,-2.657
24.977318,-1.255,-9.635,-2.735
24.987277,-1.216,-9.635,-2.735
24.997236,-1.177,-9.642,-2.696
25.007195,-1.216,-9.674,-2.741
25.017154,-1.216,-9.681,-2.703
25.027154,-1.216,-9.681,-2.703
25.037154,-1.216,-9.601,-2.928
25.047154,-1.255,-9.621,-2.812
25.057154,-1.216,-9.628,-2.773
25.067154,-1.255,-9.628,-2.773
25.077154,-1.255,-9.596,-2.728
25.087154,-1.255,-9.583,-2.805
25.097154,-1.294,-9.558,-2.721
25.107154,-1.255,-9.583,-2.805
25.117154,-1.294,-9.544,-2.798
25.127154,-1.294,-9.59,-2.766
25.137154,-1.294,-9.628,-2.773
25.147184,-1.294,-9.674,-2.741
25.157214,-1.255,-9.674,-2.741
25.167244,-1.216,-9.628,-2.773
25.177274,-1.177,-9.628,-2.773
25.187304,-1.177,-9.583,-2.805
25.197334,-1.177,-9.558,-2.721
25.207364,-1.177,-9.519,-2.714
25.217394,-1.138,-9.551,-2.76
25.227424,-1.138,-9.565,-2.682
25.237454,-1.098,-9.59,-2.766
25.247484,-1.098,-9.635,-2.735
25.257514,-1.098,-9.642,-2.696
25.267544,-1.098,-9.617,-2.612
25.277574,-1.138,-9.631,-2.535
25.287604,-1.138,-9.642,-2.696
25.29766,-1.138,-9.649,-2.657
25.307716,-1.098,-9.753,-2.516
25.317772,-1.138,-9.758,-2.716
25.327828,-1.138,-9.758,-2.716
25.337884,-1.216,-9.785,-2.562
25.34794,-1.216,-9.765,-2.678
25.357996,-1.216,-9.81,-2.646
25.368052,-1.216,-9.796,-2.723
25.378108,-1.177,-9.783,-2.8
25.388164,-1.138,-9.803,-2.685
25.39822,-1.059,-9.796,-2.723
25.408276,-1.02,-9.821,-2.807
25.418332,-0.863,-9.899,-2.821
25.428409,-0.706,-9.931,-2.866
25.438486,-0.51,-9.931,-2.866
25.448563,-0.275,-9.931,-2.866
25.45864,-0.039,-9.937,-2.828
25.468717,0.235,-9.867,-2.775
25.478794,0.588,-9.815,-2.846
25.488871,0.941,-9.808,-2.885
25.498948,1.138,-9.821,-2.807
25.509025,1.177,-9.758,-2.716
25.519102,1.177,-9.712,-2.748
25.529179,1.294,-9.687,-2.664
25.539256,1.648,-9.733,-2.632
25.549333,2.079,-9.867,-2.098
25.559418,2.354,-9.951,-2.073
25.569503,2.432,-9.996,-2.041
25.579588,2.197,-10.03,-1.848
25.589673,1.726,-9.96,-1.796
25.599758,1.177,-9.83,-1.853
25.609843,0.785,-9.767,-1.762
25.619928,0.549,-9.749,-1.639
25.630013,0.275,-9.783,-1.446
25.640098,-0.118,-9.769,-1.523
25.650183,-0.745,-9.685,-1.548
25.660268,-1.451,-9.535,-1.721
25.670353,-2.157,-9.346,-1.887
25.680438,-2.628,-9.126,-2.007
25.690523,-2.903,-9.094,-1.962
25.700608,-3.099,-9.087,-2.001
25.710653,-3.334,-9.169,-2.214
25.720698,-3.57,-9.319,-2.042
25.730743,-3.883,-9.351,-2.087
25.740788,-4.08,-9.419,-2.378
25.750833,-4.08,-9.549,-2.321
25.760878,-3.883,-9.619,-2.373
25.770923,-3.609,-9.69,-2.426
25.780968,-3.334,-9.78,-2.362
25.791013,-3.138,-9.774,-2.4
25.801058,-3.099,-9.767,-2.439
25.811103,-3.06,-9.644,-2.457
25.821148,-2.903,-9.56,-2.482
25.831193,-2.785,-9.521,-2.476
25.841238,-2.746,-9.503,-2.353
25.851245,-2.667,-9.417,-2.616
25.861252,-2.707,-9.374,-2.41
25.871259,-2.746,-9.335,-2.403
25.881266,-2.667,-9.296,-2.396
25.891273,-2.628,-9.349,-2.326
25.90128,-2.628,-9.401,-2.255
25.911287,-2.746,-9.433,-2.301
25.921294,-2.824,-9.426,-2.339
25.931301,-2.903,-9.433,-2.301
25.941308,-2.942,-9.478,-2.269
25.951315,-2.903,-9.53,-2.198
25.961322,-2.942,-9.576,-2.166
25.971329,-2.981,-9.562,-2.244
25.98132,-3.099,-9.642,-2.019
25.991311,-3.138,-9.569,-2.205
26.001302,-3.099,-9.524,-2.237
26.011293,-2.942,-9.524,-2.237
26.021284,-2.746,-9.51,-2.314
26.031275,-2.55,-9.615,-2.173
26.041266,-2.432,-9.601,-2.251
26.051257,-2.354,-9.594,-2.289
26.061248,-2.314,-9.549,-2.321
26.071239,-2.354,-9.503,-2.353
26.08123,-2.314,-9.476,-2.507
26.091221,-2.275,-9.517,-2.276
26.101212,-2.236,-9.496,-2.391
26.111161,-2.236,-9.444,-2.462
26.12111,-2.236,-9.431,-2.539
26.131059,-2.157,-9.406,-2.455
26.141008,-2.079,-9.399,-2.494
26.150957,-2.079,-9.444,-2.462
26.160906,-2.079,-9.496,-2.391
26.170855,-2.079,-9.49,-2.43
26.180804,-2.04,-9.469,-2.546
26.190753,-2.079,-9.469,-2.546
26.200702,-2.001,-9.476,-2.507
26.210651,-2.079,-9.496,-2.391
26.2206,-2.197,-9.483,-2.469
26.230549,-2.275,-9.471,-2.307
26.240498,-2.314,-9.471,-2.307
26.250418,-2.314,-9.492,-2.191
26.260338,-2.354,-9.53,-2.198
26.270258,-2.314,-9.569,-2.205
26.280178,-2.354,-9.569,-2.205
26.290098,-2.354,-9.583,-2.128
26.300018,-2.314,-9.576,-2.166
26.309938,-2.314,-9.596,-2.051
26.319858,-2.314,-9.558,-2.044
26.329778,-2.275,-9.558,-2.044
26.339698,-2.236,-9.624,-1.896
26.349618,-2.275,-9.59,-2.089
26.359538,-2.275,-9.642,-2.019
26.369458,-2.275,-9.649,-1.98
26.379355,-2.197,-9.624,-1.896
26.389252,-2.157,-9.596,-2.051
26.399149,-2.079,-9.687,-1.987
26.409046,-2.079,-9.708,-1.871
26.418943,-2.118,-9.687,-1.987
26.42884,-2.197,-9.739,-1.916
26.438737,-2.275,-9.662,-1.903
26.448634,-2.275,-9.683,-1.787
26.458531,-2.275,-9.683,-1.787
26.468428,-2.275,-9.721,-1.794
26.478325,-2.275,-9.728,-1.755
26.488222,-2.314,-9.728,-1.755
26.498119,-2.275,-9.785,-1.885
26.508016,-2.314,-9.805,-1.769
26.517901,-2.314,-9.767,-1.762
26.527786,-2.314,-9.728,-1.755
26.537671,-2.314,-9.728,-1.755
26.547556,-2.275,-9.703,-1.671
26.557441,-2.157,-9.662,-1.903
26.567326,-2.079,-9.728,-1.755
26.577211,-2.001,-9.742,-1.678
26.587096,-2.001,-9.753,-1.839
26.596981,-2.001,-9.767,-1.762
26.606866,-2.04,-9.721,-1.794
26.616751,-2.04,-9.742,-1.678
26.626636,-2.079,-9.753,-1.839
26.636521,-2.079,-9.735,-1.717
26.646376,-2.04,-9.746,-1.878
26.656231,-2.04,-9.767,-1.762
26.666086,-2.079,-9.826,-1.653
26.675941,-2.079,-9.805,-1.769
26.685796,-2.079,-9.76,-1.801
26.695651,-2.118,-9.746,-1.878
26.705506,-2.118,-9.714,-1.832
26.715361,-2.118,-9.703,-1.671
26.725216,-2.118,-9.721,-1.794
26.735071,-2.157,-9.687,-1.987
26.744926,-2.236,-9.76,-1.801
26.754781,-2.236,-9.805,-1.769
26.764636,-2.314,-9.83,-1.853
26.774491,-2.393,-9.851,-1.737
26.78431,-2.471,-9.833,-1.614
26.794129,-2.589,-9.767,-1.762
26.803948,-2.667,-9.76,-1.801
26.813767,-2.785,-9.76,-1.801
26.823586,-2.942,-9.714,-1.832
26.833405,-3.177,-9.735,-1.717
26.843224,-3.373,-9.689,-1.748
26.853043,-3.609,-9.626,-1.657
26.862862,-3.805,-9.601,-1.573
26.872681,-3.962,-9.608,-1.535
26.8825,-4.08,-9.569,-1.528
26.892319,-4.236,-9.583,-1.451
26.902138,-4.276,-9.655,-1.264
26.911969,-4.236,-9.578,-1.251
26.9218,-4.197,-9.63,-1.18
26.931631,-4.04,-9.694,-1.271
26.941462,-3.883,-9.805,-1.092
26.951293,-3.727,-9.83,-1.176
26.961124,-3.491,-9.914,-1.151
26.970955,-3.334,-9.914,-1.151
26.980786,-3.099,-9.914,-1.151
26.990617,-2.864,-9.901,-1.228
27.000448,-2.864,-9.901,-1.228
27.010279,-2.628,-9.876,-1.144
27.02011,-2.354,-9.848,-1.298
27.029941,-2.04,-9.862,-1.221
27.039737,-1.804,-9.796,-1.369
27.049533,-1.608,-9.755,-1.601
27.059329,-1.451,-9.717,-1.594
27.069125,-1.216,-9.678,-1.587
27.078921,-1.059,-9.724,-1.555
27.088717,-0.902,-9.728,-1.755
27.098513,-0.824,-9.728,-1.755
27.108309,-0.785,-9.687,-1.987
27.118105,-0.706,-9.674,-2.064
27.127901,-0.588,-9.66,-2.141
27.137697,-0.549,-9.667,-2.103
27.147493,-0.51,-9.64,-2.257
27.157289,-0.51,-9.685,-2.226
27.167085,-0.549,-9.633,-2.296
27.176861,-0.471,-9.667,-2.103
27.186637,-0.431,-9.619,-2.373
27.196413,-0.431,-9.624,-2.573
27.206189,-0.471,-9.603,-2.689
27.215965,-0.431,-9.649,-2.657
27.225741,-0.431,-9.726,-2.671
27.235517,-0.431,-9.726,-2.671
27.245293,-0.51,-9.706,-2.787
27.255069,-0.51,-9.692,-2.864
27.264845,-0.51,-9.692,-2.864
27.274621,-0.471,-9.685,-2.903
27.284397,-0.51,-9.64,-2.935
27.294173,-0.471,-9.556,-2.96
27.303911,-0.471,-9.556,-2.96
27.313649,-0.431,-9.528,-3.114
27.323387,-0.431,-9.581,-3.044
27.333125,-0.471,-9.574,-3.082
27.342863,-0.431,-9.535,-3.075
27.352601,-0.471,-9.522,-3.153
27.362339,-0.51,-9.567,-3.121
27.372077,-0.549,-9.553,-3.198
27.381815,-0.549,-9.553,-3.198
27.391553,-0.588,-9.592,-3.205
27.401291,-0.549,-9.637,-3.173
27.411029,-0.549,-9.631,-3.212
27.420767,-0.588,-9.592,-3.205
27.430505,-0.549,-9.631,-3.212
27.440243,-0.549,-9.578,-3.282
27.449951,-0.628,-9.592,-3.205
27.459659,-0.706,-9.597,-3.405
27.469367,-0.706,-9.603,-3.366
27.479075,-0.745,-9.565,-3.359
27.488783,-0.706,-9.487,-3.346
27.498491,-0.745,-9.467,-3.462
27.508199,-0.745,-9.467,-3.462
27.517907,-0.745,-9.449,-3.339
27.527615,-0.745,-9.46,-3.5
27.537323,-0.745,-9.435,-3.416
27.547031,-0.785,-9.365,-3.364
27.556739,-0.824,-9.351,-3.441
27.566445,-0.824,-9.376,-3.525
27.576151,-0.824,-9.481,-3.384
27.585857,-0.824,-9.467,-3.462
27.595563,-0.824,-9.46,-3.5
27.605269,-0.863,-9.467,-3.462
27.614975,-0.902,-9.519,-3.391
27.624681,-0.902,-9.506,-3.469
27.634387,-0.902,-9.474,-3.423
27.644093,-0.941,-9.474,-3.423
27.653799,-0.941,-9.474,-3.423
27.663505,-0.941,-9.422,-3.494
27.673211,-0.941,-9.474,-3.423
27.682917,-0.981,-9.467,-3.462
27.692638,-1.02,-9.422,-3.494
27.702359,-1.02,-9.428,-3.455
27.71208,-1.02,-9.376,-3.525
27.721801,-1.02,-9.383,-3.487
27.731522,-1.02,-9.39,-3.448
27.741243,-0.981,-9.397,-3.409
27.750964,-1.02,-9.435,-3.416
27.760685,-1.059,-9.383,-3.487
27.770406,-1.02,-9.376,-3.525
27.780127,-1.02,-9.383,-3.487
27.789848,-1.02,-9.39,-3.448
27.799569,-1.02,-9.344,-3.48
27.80929,-1.02,-9.351,-3.441
27.819015,-1.02,-9.299,-3.512
27.82874,-1.02,-9.351,-3.441
27.838465,-1.059,-9.397,-3.409
27.84819,-1.059,-9.39,-3.448
27.857915,-1.059,-9.369,-3.564
27.86764,-1.098,-9.39,-3.448
27.877365,-1.098,-9.422,-3.494
27.88709,-1.098,-9.415,-3.532
27.896815,-1.098,-9.403,-3.371
27.90654,-1.098,-9.344,-3.48
27.916265,-1.098,-9.351,-3.441
27.92599,-1.098,-9.344,-3.48
27.935715,-1.098,-9.376,-3.525
27.94544,-1.098,-9.39,-3.448
27.955203,-1.138,-9.324,-3.596
27.964966,-1.138,-9.349,-3.68
27.974729,-1.138,-9.408,-3.571
27.984492,-1.138,-9.376,-3.525
27.994255,-1.138,-9.324,-3.596
28.004018,-1.098,-9.331,-3.557
28.013781,-1.02,-9.313,-3.434
28.023544,-1.02,-9.267,-3.466
28.033307,-0.941,-9.151,-3.446
28.04307,-0.863,-9.113,-3.439
28.052833,-0.785,-9.056,-3.31
28.062596,-0.628,-8.915,-3.205
28.072359,-0.549,-8.799,-3.185
28.082172,-0.549,-8.756,-2.978
28.091985,-0.588,-8.651,-3.119
28.101798,-0.549,-8.908,-3.244
28.111611,-0.549,-9.228,-2.782
28.121424,-0.588,-9.483,-3.146
28.131237,-0.588,-9.853,-2.853
28.14105,-0.667,-9.853,-2.853
28.150863,-0.706,-9.821,-2.807
28.160676,-0.785,-9.731,-2.871
28.170489,-0.863,-9.769,-2.878
28.180302,-0.981,-9.894,-2.621
28.190115,-1.059,-9.967,-2.435
28.199928,-1.138,-9.985,-2.557
28.20977,-1.255,-9.851,-2.414
28.219612,-1.412,-9.755,-2.278
28.229454,-1.451,-9.826,-2.33
28.239296,-1.53,-9.853,-2.176
28.249138,-1.648,-9.994,-2.28
28.25898,-1.726,-9.949,-2.312
28.268822,-1.765,-9.924,-2.228
28.278664,-1.883,-9.962,-2.235
28.288506,-1.883,-10.046,-2.21
28.298348,-2.001,-9.944,-2.112
28.30819,-2.04,-10.112,-2.062
28.318032,-2.079,-10.035,-2.048
28.327874,-2.118,-10.144,-2.107
28.337716,-2.118,-10.055,-1.932
28.347586,-2.157,-10.133,-1.946
28.357456,-2.236,-10.087,-1.978
28.367326,-2.236,-10.228,-2.082
28.377196,-2.236,-9.999,-1.803
28.387066,-2.236,-10.005,-1.764
28.396936,-2.197,-9.928,-1.751
28.406806,-2.118,-10.019,-1.687
28.416676,-2.04,-9.921,-1.789
28.426546,-1.883,-9.858,-1.698
28.436416,-1.804,-9.837,-1.814
28.446286,-1.569,-9.749,-1.639
28.456156,-1.53,-9.817,-1.93
28.466026,-1.451,-9.703,-1.671
28.475896,-1.451,-9.771,-1.962
28.485801,-1.451,-9.683,-1.787
28.495706,-1.491,-9.714,-1.832
28.505611,-1.53,-9.658,-1.703
28.515516,-1.53,-9.721,-1.794
28.525421,-1.608,-9.687,-1.987
28.535326,-1.648,-9.605,-1.773
28.545231,-1.687,-9.628,-2.096
28.555136,-1.726,-9.669,-1.864
28.565041,-1.804,-9.751,-2.078
28.574946,-1.883,-9.758,-2.039
28.584851,-1.922,-9.719,-2.032
28.594756,-1.922,-9.685,-2.226
28.604661,-1.883,-9.667,-2.103
28.614608,-1.961,-9.608,-2.212
28.624555,-1.961,-9.621,-2.135
28.634502,-1.961,-9.621,-2.135
28.644449,-1.961,-9.583,-2.128
28.654396,-2.001,-9.555,-2.282
28.664343,-1.961,-9.601,-2.251
28.67429,-2.001,-9.583,-2.128
28.684237,-2.04,-9.699,-2.148
28.694184,-2.079,-9.692,-2.187
28.704131,-2.079,-9.64,-2.257
28.714078,-2.118,-9.724,-2.232
28.724025,-2.118,-9.653,-2.18
28.733972,-2.157,-9.653,-2.18
28.743956,-2.157,-9.626,-2.335
28.75394,-2.236,-9.615,-2.173
28.763924,-2.236,-9.583,-2.128
28.773908,-2.236,-9.615,-2.173
28.783892,-2.197,-9.594,-2.289
28.793876,-2.236,-9.653,-2.18
28.80386,-2.197,-9.615,-2.173
28.813844,-2.236,-9.678,-2.264
28.823828,-2.275,-9.678,-2.264
28.833812,-2.275,-9.658,-2.38
28.843796,-2.236,-9.703,-2.348
28.85378,-2.236,-9.703,-2.348
28.863764,-2.197,-9.665,-2.341
28.873748,-2.118,-9.626,-2.335
28.883772,-2.118,-9.574,-2.405
28.893796,-2.118,-9.555,-2.282
28.90382,-2.04,-9.515,-2.514
28.913844,-2.079,-9.542,-2.36
28.923868,-2.04,-9.496,-2.391
28.933892,-2.001,-9.483,-2.469
28.943916,-1.961,-9.476,-2.507
28.95394,-1.922,-9.476,-2.507
28.963964,-1.922,-9.483,-2.469
28.973988,-1.922,-9.444,-2.462
28.984012,-1.961,-9.419,-2.378
28.994036,-1.961,-9.412,-2.416
29.00406,-1.961,-9.458,-2.385
29.014121,-2.001,-9.433,-2.301
29.024182,-2.04,-9.492,-2.191
29.034243,-2.04,-9.49,-2.43
29.044304,-2.079,-9.542,-2.36
29.054365,-2.079,-9.51,-2.314
29.064426,-2.118,-9.594,-2.289
29.074487,-2.118,-9.594,-2.289
29.084548,-2.118,-9.633,-2.296
29.094609,-2.157,-9.665,-2.341
29.10467,-2.157,-9.678,-2.264
29.114731,-2.157,-9.69,-2.426
29.124792,-2.197,-9.728,-2.432
29.134853,-2.197,-9.735,-2.394
29.144937,-2.157,-9.71,-2.31
29.155021,-2.197,-9.755,-2.278
29.165105,-2.236,-9.71,-2.31
29.175189,-2.236,-9.671,-2.303
29.185273,-2.236,-9.626,-2.335
29.195357,-2.236,-9.612,-2.412
29.205441,-2.275,-9.535,-2.398
29.215525,-2.236,-9.594,-2.289
29.225609,-2.197,-9.574,-2.405
29.235693,-2.197,-9.542,-2.36
29.245777,-2.118,-9.542,-2.36
29.255861,-2.079,-9.496,-2.391
29.265945,-2.079,-9.56,-2.482
29.276029,-2.079,-9.542,-2.36
29.286113,-2.04,-9.535,-2.398
29.296237,-2.001,-9.517,-2.276
29.306361,-1.961,-9.542,-2.36
29.316485,-1.961,-9.515,-2.514
29.326609,-1.922,-9.49,-2.43
29.336733,-1.961,-9.444,-2.462
29.346857,-1.922,-9.451,-2.423
29.356981,-1.961,-9.517,-2.276
29.367105,-1.961,-9.542,-2.36
29.377229,-1.922,-9.601,-2.251
29.387353,-2.001,-9.608,-2.212
29.397477,-2.04,-9.587,-2.328
29.407589,-2.079,-9.653,-2.18
29.417701,-2.079,-9.606,-2.451
29.427813,-2.118,-9.64,-2.257
29.437925,-2.118,-9.692,-2.187
29.448037,-2.157,-9.71,-2.31
29.458149,-2.197,-9.703,-2.348
29.468261,-2.157,-9.671,-2.303
29.478373,-2.197,-9.678,-2.264
29.488485,-2.197,-9.651,-2.419
29.498597,-2.236,-9.665,-2.341
29.508709,-2.197,-9.56,-2.482
29.518821,-2.197,-9.56,-2.482
29.528933,-2.157,-9.542,-2.36
29.539045,-2.118,-9.542,-2.36
29.549141,-2.157,-9.521,-2.476
29.559237,-2.118,-9.496,-2.391
29.569333,-2.157,-9.49,-2.43
29.579429,-2.118,-9.437,-2.501
29.589525,-2.157,-9.458,-2.385
29.599621,-2.118,-9.406,-2.455
29.609717,-2.157,-9.406,-2.455
29.619813,-2.157,-9.451,-2.423
29.629909,-2.157,-9.49,-2.43
29.640005,-2.157,-9.496,-2.391
29.650101,-2.197,-9.476,-2.507
29.660197,-2.197,-9.458,-2.385
29.670293,-2.157,-9.528,-2.437
29.680361,-2.197,-9.501,-2.591
29.690429,-2.236,-9.562,-2.244
29.700497,-2.236,-9.528,-2.437
29.710565,-2.197,-9.521,-2.476
29.720633,-2.197,-9.535,-2.398
29.730701,-2.236,-9.528,-2.437
29.740769,-2.197,-9.555,-2.282
29.750837,-2.157,-9.574,-2.405
29.760905,-2.197,-9.587,-2.328
29.770973,-2.197,-9.574,-2.405
29.781041,-2.197,-9.587,-2.328
29.791109,-2.157,-9.542,-2.36
29.801177,-2.157,-9.58,-2.366
29.811245,-2.157,-9.58,-2.366
29.821282,-2.157,-9.528,-2.437
29.831319,-2.157,-9.574,-2.405
29.841356,-2.118,-9.574,-2.405
29.851393,-2.118,-9.535,-2.398
29.86143,-2.079,-9.542,-2.36
29.871467,-2.118,-9.64,-2.257
29.881504,-2.118,-9.58,-2.366
29.891541,-2.118,-9.58,-2.366
29.901578,-2.079,-9.574,-2.405
29.911615,-2.079,-9.671,-2.303
29.921652,-2.118,-9.619,-2.373
29.931689,-2.118,-9.619,-2.373
29.941726,-2.079,-9.612,-2.412
29.951733,-2.079,-9.653,-2.18
29.96174,-2.04,-9.587,-2.328
29.971747,-2.079,-9.594,-2.289
29.981754,-2.001,-9.574,-2.405
29.991761,-2.04,-9.574,-2.405
30.001768,-2.079,-9.574,-2.405
30.011775,-2.079,-9.574,-2.405
30.021782,-2.04,-9.567,-2.444
30.031789,-2.079,-9.567,-2.444
30.041796,-2.04,-9.58,-2.366
30.051803,-2.04,-9.587,-2.328
30.06181,-2.079,-9.567,-2.444
30.071817,-2.079,-9.633,-2.296
30.081806,-2.04,-9.553,-2.521
30.091795,-2.079,-9.535,-2.398
30.101784,-2.079,-9.49,-2.43
30.111773,-2.079,-9.542,-2.36
30.121762,-2.079,-9.58,-2.366
30.131751,-2.04,-9.542,-2.36
30.14174,-2.04,-9.574,-2.405
30.151729,-2.079,-9.58,-2.366
30.161718,-2.079,-9.542,-2.36
30.171707,-2.157,-9.574,-2.405
30.181696,-2.118,-9.58,-2.366
30.191685,-2.157,-9.619,-2.373
30.201674,-2.118,-9.599,-2.489
30.211613,-2.118,-9.619,-2.373
30.221552,-2.079,-9.633,-2.296
30.231491,-2.118,-9.574,-2.405
30.24143,-2.118,-9.574,-2.405
30.251369,-2.197,-9.528,-2.437
30.261308,-2.157,-9.58,-2.366
30.271247,-2.157,-9.58,-2.366
30.281186,-2.157,-9.574,-2.405
30.291125,-2.197,-9.567,-2.444
30.301064,-2.197,-9.606,-2.451
30.311003,-2.197,-9.606,-2.451
30.320942,-2.197,-9.585,-2.566
30.330881,-2.197,-9.606,-2.451
30.34082,-2.157,-9.567,-2.444
30.350713,-2.118,-9.535,-2.398
30.360606,-2.118,-9.503,-2.353
30.370499,-2.118,-9.412,-2.416
30.380392,-2.079,-9.419,-2.378
30.390285,-2.079,-9.49,-2.43
30.400178,-2.079,-9.535,-2.398
30.410071,-2.118,-9.64,-2.257
30.419964,-2.118,-9.696,-2.387
30.429857,-2.118,-9.742,-2.355
30.43975,-2.118,-9.735,-2.394
30.449643,-2.118,-9.742,-2.355
30.459536,-2.118,-9.774,-2.4
30.469429,-2.079,-9.78,-2.362
30.479276,-2.118,-9.762,-2.239
30.489123,-2.04,-9.749,-2.316
30.49897,-2.04,-9.58,-2.366
30.508817,-2.079,-9.471,-2.307
30.518664,-2.079,-9.426,-2.339
30.528511,-2.04,-9.246,-2.228
30.538358,-2.04,-9.342,-2.364
30.548205,-1.961,-9.296,-2.396
30.558052,-2.001,-9.246,-2.228
30.567899,-2.079,-9.174,-2.414
30.577746,-2.001,-9.342,-2.364
30.587593,-1.961,-9.535,-2.398
30.59744,-1.961,-10.008,-2.88
30.93174,-2.079,-9.376,-2.171
30.941587,-2.118,-9.517,-2.276
30.951434,-2.197,-9.58,-2.366
30.961281,-2.236,-9.619,-2.373
30.971128,-2.314,-9.633,-2.296
30.980975,-2.275,-9.678,-2.264
30.990822,-2.354,-9.64,-2.257
31.000669,-2.354,-9.658,-2.38
31.010516,-2.432,-9.608,-2.212
31.020363,-2.471,-9.619,-2.373
31.03021,-2.471,-9.615,-2.173
31.040057,-2.511,-9.608,-2.212
31.049904,-2.471,-9.685,-2.226
31.059751,-2.471,-9.642,-2.019
31.069598,-2.511,-9.601,-2.251
31.079445,-2.393,-9.64,-2.257
31.089292,-2.393,-9.621,-2.135
31.099139,-2.393,-9.646,-2.219
31.108986,-2.393,-9.562,-2.244
31.118833,-2.314,-9.608,-2.212
31.12868,-2.275,-9.41,-1.978
31.138527,-2.275,-9.453,-2.185
31.148374,-2.197,-9.492,-2.191
31.158221,-2.236,-9.692,-2.187
31.168068,-2.197,-9.826,-2.33
31.177915,-2.275,-9.78,-2.362
31.187762,-2.275,-9.742,-2.355
31.197609,-2.236,-9.665,-2.341
31.207456,-2.236,-9.633,-2.296
31.217303,-2.197,-9.587,-2.328
31.22715,-2.197,-9.542,-2.36
31.236997,-2.197,-9.542,-2.36
31.246854,-2.197,-9.53,-2.198
31.256711,-2.275,-9.471,-2.307
31.266568,-2.236,-9.567,-2.444
31.276425,-2.314,-9.587,-2.328
31.286282,-2.314,-9.512,-2.076
31.296139,-2.314,-9.419,-2.378
31.305996,-2.236,-9.471,-2.307
31.315853,-2.275,-9.496,-2.391
31.32571,-2.314,-9.335,-2.403
31.335567,-2.314,-9.342,-2.364
31.345424,-2.354,-9.476,-2.507
31.355281,-2.393,-9.503,-2.353
31.365138,-2.432,-9.401,-2.255
31.374995,-2.432,-9.394,-2.294
31.384852,-2.432,-9.349,-2.326
31.394721,-2.511,-9.381,-2.371
31.40459,-2.55,-9.458,-2.385
31.414459,-2.55,-9.569,-2.205
31.424328,-2.55,-9.549,-2.321
31.434197,-2.589,-9.51,-2.314
31.444066,-2.589,-9.503,-2.353
31.453935,-2.55,-9.51,-2.314
31.463804,-2.511,-9.549,-2.321
31.473673,-2.511,-9.587,-2.328
31.483542,-2.511,-9.594,-2.289
31.493411,-2.471,-9.606,-2.451
31.50328,-2.471,-9.619,-2.373
31.513149,-2.393,-9.594,-2.289
31.523018,-2.393,-9.569,-2.205
31.532887,-2.354,-9.437,-2.501
31.542756,-2.393,-9.426,-2.339
31.552625,-2.393,-9.387,-2.332
31.562494,-2.354,-9.381,-2.371
31.572363,-2.354,-9.419,-2.378
31.582232,-2.354,-9.387,-2.332
31.592101,-2.393,-9.349,-2.326
31.60197,-2.393,-9.303,-2.357
31.611839,-2.393,-9.342,-2.364
31.621708,-2.393,-9.296,-2.396
31.631577,-2.393,-9.387,-2.332
31.641446,-2.393,-9.426,-2.339
31.651315,-2.432,-9.465,-2.346
31.661193,-2.432,-9.535,-2.398
31.671071,-2.471,-9.594,-2.289
31.680949,-2.471,-9.626,-2.335
31.690827,-2.471,-9.658,-2.38
31.700705,-2.471,-9.633,-2.296
31.710583,-2.511,-9.633,-2.296
31.720461,-2.471,-9.601,-2.251
31.730339,-2.432,-9.626,-2.335
31.740217,-2.432,-9.626,-2.335
31.750095,-2.432,-9.633,-2.296
31.759973,-2.393,-9.58,-2.366
31.769851,-2.432,-9.549,-2.321
31.779729,-2.393,-9.549,-2.321
31.789624,-2.432,-9.555,-2.282
31.799519,-2.432,-9.51,-2.314
31.809414,-2.432,-9.503,-2.353
31.819309,-2.393,-9.451,-2.423
31.829204,-2.393,-9.406,-2.455
31.839099,-2.393,-9.406,-2.455
31.848994,-2.354,-9.419,-2.378
31.858889,-2.354,-9.426,-2.339
31.868784,-2.354,-9.387,-2.332
31.878679,-2.354,-9.419,-2.378
31.888574,-2.393,-9.471,-2.307
31.898469,-2.393,-9.471,-2.307
31.908364,-2.432,-9.465,-2.346
31.918251,-2.393,-9.44,-2.262
31.928138,-2.393,-9.483,-2.469
31.938025,-2.432,-9.51,-2.314
31.947912,-2.432,-9.49,-2.43
31.957799,-2.432,-9.549,-2.321
31.967686,-2.432,-9.503,-2.353
31.977573,-2.471,-9.483,-2.469
31.98746,-2.471,-9.503,-2.353
31.997347,-2.432,-9.478,-2.269
32.007234,-2.471,-9.451,-2.423
32.017121,-2.471,-9.471,-2.307
32.027008,-2.432,-9.483,-2.469
32.036895,-2.432,-9.485,-2.23
32.046782,-2.393,-9.492,-2.191
32.056669,-2.393,-9.465,-2.346
32.066559,-2.393,-9.465,-2.346
32.076449,-2.393,-9.465,-2.346
32.086339,-2.393,-9.426,-2.339
32.096229,-2.393,-9.433,-2.301
32.106119,-2.393,-9.433,-2.301
32.116009,-2.354,-9.426,-2.339
32.125899,-2.354,-9.426,-2.339
32.135789,-2.314,-9.465,-2.346
32.145679,-2.354,-9.471,-2.307
32.155569,-2.354,-9.51,-2.314
32.165459,-2.393,-9.517,-2.276
32.175349,-2.432,-9.496,-2.391
32.185275,-2.393,-9.476,-2.507
32.195201,-2.354,-9.517,-2.276
32.205127,-2.393,-9.528,-2.437
32.215053,-2.354,-9.49,-2.43
32.224979,-2.393,-9.49,-2.43
32.234905,-2.471,-9.503,-2.353
32.244831,-2.511,-9.555,-2.282
32.254757,-2.471,-9.51,-2.314
32.264683,-2.393,-9.496,-2.391
32.274609,-2.432,-9.458,-2.385
32.284535,-2.354,-9.478,-2.269
32.294461,-2.354,-9.471,-2.307
32.304387,-2.354,-9.426,-2.339
32.31436,-2.314,-9.471,-2.307
32.324333,-2.393,-9.465,-2.346
32.334306,-2.314,-9.476,-2.507
32.344279,-2.354,-9.549,-2.321
32.354252,-2.393,-9.569,-2.205
32.364225,-2.432,-9.485,-2.23
32.374198,-2.432,-9.44,-2.262
32.384171,-2.393,-9.517,-2.276
32.394144,-2.354,-9.524,-2.237
32.404117,-2.314,-9.503,-2.353
32.41409,-2.354,-9.549,-2.321
32.424063,-2.354,-9.64,-2.257
32.434036,-2.393,-9.633,-2.296
32.444041,-2.393,-9.64,-2.257
32.454046,-2.393,-9.615,-2.173
32.464051,-2.354,-9.549,-2.321
32.474056,-2.354,-9.535,-2.398
32.484061,-2.314,-9.587,-2.328
32.494066,-2.354,-9.555,-2.282
32.504071,-2.314,-9.555,-2.282
32.514076,-2.354,-9.503,-2.353
32.524081,-2.354,-9.517,-2.276
32.534086,-2.354,-9.433,-2.301
32.544091,-2.393,-9.471,-2.307
32.554096,-2.432,-9.562,-2.244
32.564101,-2.432,-9.453,-2.185
32.574106,-2.393,-9.419,-2.378
32.584137,-2.432,-9.426,-2.339
32.594168,-2.432,-9.465,-2.346
32.604199,-2.432,-9.44,-2.262
32.61423,-2.393,-9.458,-2.385
32.624261,-2.432,-9.458,-2.385
32.634292,-2.432,-9.458,-2.385
32.644323,-2.432,-9.517,-2.276
32.654354,-2.432,-9.562,-2.244
32.664385,-2.471,-9.587,-2.328
32.674416,-2.432,-9.542,-2.36
32.684447,-2.471,-9.549,-2.321
32.694478,-2.432,-9.549,-2.321
32.704482,-2.393,-9.517,-2.276
32.714486,-2.471,-9.503,-2.353
32.72449,-2.432,-9.485,-2.23
32.734494,-2.393,-9.562,-2.244
32.744498,-2.432,-9.555,-2.282
32.754502,-2.393,-9.555,-2.282
32.764506,-2.354,-9.562,-2.244
32.77451,-2.393,-9.496,-2.391
32.784514,-2.393,-9.555,-2.282
32.794518,-2.393,-9.496,-2.391
32.804522,-2.393,-9.517,-2.276
32.814526,-2.393,-9.53,-2.198
32.82453,-2.393,-9.524,-2.237
32.834534,-2.432,-9.542,-2.36
32.844531,-2.432,-9.555,-2.282
32.854528,-2.432,-9.555,-2.282
32.864525,-2.432,-9.555,-2.282
32.874522,-2.354,-9.549,-2.321
32.884519,-2.393,-9.51,-2.314
32.894516,-2.393,-9.524,-2.237
32.904513,-2.393,-9.524,-2.237
32.91451,-2.393,-9.471,-2.307
32.924507,-2.354,-9.465,-2.346
32.934504,-2.354,-9.51,-2.314
32.944501,-2.354,-9.549,-2.321
32.954498,-2.314,-9.542,-2.36
32.964495,-2.354,-9.503,-2.353
32.974488,-2.393,-9.49,-2.43
32.984481,-2.354,-9.594,-2.289
32.994474,-2.354,-9.374,-2.41
33.004467,-2.354,-9.451,-2.423
33.01446,-2.393,-9.426,-2.339
33.024453,-2.393,-9.465,-2.346
33.034446,-2.393,-9.49,-2.43
33.044439,-2.393,-9.517,-2.276
33.054432,-2.393,-9.503,-2.353
33.064425,-2.432,-9.465,-2.346
33.074418,-2.393,-9.503,-2.353
33.084411,-2.393,-9.503,-2.353
33.094404,-2.393,-9.51,-2.314
33.104397,-2.393,-9.342,-2.364
33.11439,-2.432,-9.458,-2.385
33.124383,-2.393,-9.51,-2.314
33.134376,-2.432,-9.517,-2.276
33.144369,-2.432,-9.549,-2.321
33.154362,-2.393,-9.549,-2.321
33.164355,-2.393,-9.542,-2.36
33.174348,-2.393,-9.496,-2.391
33.184341,-2.393,-9.51,-2.314
33.194334,-2.432,-9.528,-2.437
33.204327,-2.432,-9.528,-2.437
33.21432,-2.393,-9.51,-2.314
33.224313,-2.393,-9.465,-2.346
33.234306,-2.393,-9.465,-2.346
33.244258,-2.354,-9.471,-2.307
33.25421,-2.393,-9.465,-2.346
33.264162,-2.354,-9.465,-2.346
33.274114,-2.354,-9.49,-2.43
33.284066,-2.393,-9.542,-2.36
33.294018,-2.393,-9.549,-2.321
33.30397,-2.393,-9.496,-2.391
33.313922,-2.432,-9.49,-2.43
33.323874,-2.393,-9.437,-2.501
33.333826,-2.393,-9.426,-2.339
33.343778,-2.393,-9.465,-2.346
33.35373,-2.471,-9.426,-2.339
33.363682,-2.471,-9.412,-2.416
33.373634,-2.471,-9.478,-2.269
33.383557,-2.471,-9.433,-2.301
33.39348,-2.393,-9.458,-2.385
33.403403,-2.432,-9.51,-2.314
33.413326,-2.471,-9.555,-2.282
33.423249,-2.471,-9.542,-2.36
33.433172,-2.432,-9.555,-2.282
33.443095,-2.432,-9.517,-2.276
33.453018,-2.354,-9.562,-2.244
33.462941,-2.393,-9.549,-2.321
33.472864,-2.393,-9.528,-2.437
33.482787,-2.393,-9.549,-2.321
33.49271,-2.393,-9.517,-2.276
33.502633,-2.393,-9.549,-2.321
33.512556,-2.354,-9.58,-2.366
33.522464,-2.393,-9.569,-2.205
33.532372,-2.393,-9.562,-2.244
33.54228,-2.393,-9.503,-2.353
33.552188,-2.432,-9.549,-2.321
33.562096,-2.432,-9.524,-2.237
33.572004,-2.471,-9.471,-2.307
33.581912,-2.471,-9.503,-2.353
33.59182,-2.471,-9.471,-2.307
33.601728,-2.511,-9.471,-2.307
33.611636,-2.471,-9.433,-2.301
33.621544,-2.471,-9.465,-2.346
33.631452,-2.471,-9.426,-2.339
33.641352,-2.471,-9.426,-2.339
33.651252,-2.471,-9.465,-2.346
33.661152,-2.511,-9.471,-2.307
33.671052,-2.471,-9.471,-2.307
33.680952,-2.471,-9.465,-2.346
33.690852,-2.471,-9.503,-2.353
33.700752,-2.471,-9.524,-2.237
33.710652,-2.471,-9.503,-2.353
33.720552,-2.471,-9.503,-2.353
33.730452,-2.471,-9.483,-2.469
33.740352,-2.471,-9.503,-2.353
33.750252,-2.471,-9.542,-2.36
33.760152,-2.432,-9.503,-2.353
33.770052,-2.432,-9.471,-2.307
33.779952,-2.393,-9.471,-2.307
33.789852,-2.393,-9.465,-2.346
33.799752,-2.432,-9.471,-2.307
33.809652,-2.432,-9.465,-2.346
33.819552,-2.393,-9.465,-2.346
33.829452,-2.393,-9.465,-2.346
33.839352,-2.393,-9.471,-2.307
33.849252,-2.432,-9.471,-2.307
33.859152,-2.471,-9.451,-2.423
33.869052,-2.432,-9.478,-2.269
33.878952,-2.432,-9.458,-2.385
33.888852,-2.432,-9.517,-2.276
33.898738,-2.393,-9.444,-2.462
33.908624,-2.471,-9.444,-2.462
33.91851,-2.511,-9.503,-2.353
33.928396,-2.471,-9.503,-2.353
33.938282,-2.471,-9.496,-2.391
33.948168,-2.471,-9.496,-2.391
33.958054,-2.471,-9.51,-2.314
33.96794,-2.471,-9.465,-2.346
33.977826,-2.471,-9.471,-2.307
33.987712,-2.471,-9.485,-2.23
33.997598,-2.432,-9.465,-2.346
34.007484,-2.432,-9.503,-2.353
34.01737,-2.432,-9.517,-2.276
34.027256,-2.432,-9.549,-2.321
34.037135,-2.432,-9.478,-2.269
34.047014,-2.471,-9.412,-2.416
34.056893,-2.393,-9.433,-2.301
34.066772,-2.432,-9.433,-2.301
34.076651,-2.471,-9.465,-2.346
34.08653,-2.471,-9.419,-2.378
34.096409,-2.471,-9.465,-2.346
34.106288,-2.471,-9.478,-2.269
34.116167,-2.432,-9.478,-2.269
34.126046,-2.432,-9.465,-2.346
34.135925,-2.393,-9.478,-2.269
34.145804,-2.432,-9.517,-2.276
34.155683,-2.471,-9.555,-2.282
34.165567,-2.471,-9.515,-2.514
34.175451,-2.471,-9.503,-2.353
34.185335,-2.432,-9.542,-2.36
34.195219,-2.432,-9.542,-2.36
34.205103,-2.432,-9.555,-2.282
34.214987,-2.471,-9.503,-2.353
34.224871,-2.511,-9.451,-2.423
34.234755,-2.471,-9.433,-2.301
34.244639,-2.471,-9.503,-2.353
34.254523,-2.471,-9.53,-2.198
34.264407,-2.471,-9.503,-2.353
34.274291,-2.471,-9.458,-2.385
34.284175,-2.471,-9.444,-2.462
34.294072,-2.471,-9.444,-2.462
34.303969,-2.432,-9.426,-2.339
34.313866,-2.393,-9.419,-2.378
34.323763,-2.393,-9.374,-2.41
34.33366,-2.393,-9.381,-2.371
34.343557,-2.354,-9.401,-2.255
34.353454,-2.393,-9.433,-2.301
34.363351,-2.471,-9.517,-2.276
34.373248,-2.471,-9.569,-2.205
34.383145,-2.511,-9.608,-2.212
34.393042,-2.471,-9.685,-2.226
34.402939,-2.471,-9.633,-2.296
34.412836,-2.471,-9.653,-2.18
34.422727,-2.55,-9.635,-2.057
34.432618,-2.511,-9.549,-2.321
34.442509,-2.511,-9.53,-2.198
34.4524,-2.511,-9.562,-2.244
34.462291,-2.471,-9.524,-2.237
34.472182,-2.432,-9.51,-2.314
34.482073,-2.432,-9.51,-2.314
34.491964,-2.471,-9.471,-2.307
34.501855,-2.511,-9.412,-2.416
34.511746,-2.511,-9.401,-2.255
34.521637,-2.511,-9.387,-2.332
34.531528,-2.55,-9.381,-2.371
34.541419,-2.511,-9.387,-2.332
34.55131,-2.55,-9.356,-2.287
34.561182,-2.55,-9.426,-2.339
34.571054,-2.55,-9.471,-2.307
34.580926,-2.511,-9.444,-2.462
34.590798,-2.55,-9.465,-2.346
34.60067,-2.511,-9.465,-2.346
34.610542,-2.511,-9.387,-2.332
34.620414,-2.471,-9.367,-2.448
34.630286,-2.471,-9.374,-2.41
34.640158,-2.471,-9.412,-2.416
34.65003,-2.471,-9.419,-2.378
34.659902,-2.511,-9.353,-2.526
34.669774,-2.471,-9.419,-2.378
34.679646,-2.511,-9.419,-2.378
34.689512,-2.511,-9.478,-2.269
34.699378,-2.471,-9.426,-2.339
34.709244,-2.471,-9.465,-2.346
34.71911,-2.511,-9.517,-2.276
34.728976,-2.511,-9.524,-2.237
34.738842,-2.471,-9.517,-2.276
34.748708,-2.471,-9.53,-2.198
34.758574,-2.471,-9.517,-2.276
34.76844,-2.471,-9.524,-2.237
34.778306,-2.511,-9.576,-2.166
34.788172,-2.511,-9.537,-2.16
34.798038,-2.511,-9.562,-2.244
34.807904,-2.471,-9.53,-2.198
34.817774,-2.471,-9.537,-2.16
34.827644,-2.511,-9.555,-2.282
34.837514,-2.471,-9.569,-2.205
34.847384,-2.432,-9.524,-2.237
34.857254,-2.432,-9.53,-2.198
34.867124,-2.432,-9.517,-2.276
34.876994,-2.432,-9.562,-2.244
34.886864,-2.471,-9.555,-2.282
34.896734,-2.511,-9.555,-2.282
34.906604,-2.511,-9.524,-2.237
34.916474,-2.471,-9.517,-2.276
34.926344,-2.471,-9.51,-2.314
34.936214,-2.471,-9.51,-2.314
34.946114,-2.432,-9.49,-2.43
34.956014,-2.471,-9.517,-2.276
34.965914,-2.471,-9.433,-2.301
34.975814,-2.471,-9.485,-2.23
34.985714,-2.511,-9.478,-2.269
34.995614,-2.471,-9.458,-2.385
35.005514,-2.471,-9.471,-2.307
35.015414,-2.511,-9.458,-2.385
35.025314,-2.471,-9.478,-2.269
35.035214,-2.471,-9.485,-2.23
35.045114,-2.511,-9.503,-2.353
35.055014,-2.511,-9.485,-2.23
35.064914,-2.511,-9.471,-2.307
35.074842,-2.511,-9.433,-2.301
35.08477,-2.55,-9.471,-2.307
35.094698,-2.471,-9.485,-2.23
35.104626,-2.432,-9.492,-2.191
35.114554,-2.432,-9.51,-2.314
35.124482,-2.471,-9.517,-2.276
35.13441,-2.471,-9.51,-2.314
35.144338,-2.471,-9.524,-2.237
35.154266,-2.471,-9.53,-2.198
35.164194,-2.471,-9.524,-2.237
35.174122,-2.471,-9.562,-2.244
35.18405,-2.471,-9.562,-2.244
35.193978,-2.511,-9.524,-2.237
35.203894,-2.471,-9.483,-2.469
35.21381,-2.432,-9.59,-2.089
35.223726,-2.432,-9.555,-2.282
35.233642,-2.471,-9.562,-2.244
35.243558,-2.432,-9.524,-2.237
35.253474,-2.471,-9.549,-2.321
35.26339,-2.432,-9.524,-2.237
35.273306,-2.432,-9.517,-2.276
35.283222,-2.432,-9.524,-2.237
35.293138,-2.393,-9.615,-2.173
35.303054,-2.393,-9.601,-2.251
35.31297,-2.393,-9.569,-2.205
35.322886,-2.393,-9.524,-2.237
35.332802,-2.393,-9.446,-2.223
35.342714,-2.393,-9.415,-2.178
35.352626,-2.393,-9.415,-2.178
35.362538,-2.393,-9.446,-2.223
35.37245,-2.432,-9.499,-2.153
35.382362,-2.393,-9.569,-2.205
35.392274,-2.393,-9.615,-2.173
35.402186,-2.393,-9.674,-2.064
35.412098,-2.393,-9.692,-2.187
35.42201,-2.354,-9.692,-2.187
35.431922,-2.393,-9.66,-2.141
35.441834,-2.314,-9.653,-2.18
35.451746,-2.314,-9.692,-2.187
35.483141,-2.275,-9.692,-2.187
35.493053,-2.275,-9.653,-2.18
35.502965,-2.275,-9.562,-2.244
35.512877,-2.236,-9.562,-2.244
35.522789,-2.236,-9.594,-2.289
35.532701,-2.314,-9.576,-2.166
35.542613,-2.275,-9.51,-2.314
35.552525,-2.236,-9.492,-2.191
35.562437,-2.236,-9.517,-2.276
35.572349,-2.236,-9.517,-2.276
35.582261,-2.197,-9.485,-2.23
35.592173,-2.236,-9.401,-2.255
35.602085,-2.236,-9.394,-2.294
35.611997,-2.236,-9.478,-2.269
35.621823,-2.275,-9.524,-2.237
35.631649,-2.314,-9.549,-2.321
35.641475,-2.314,-9.524,-2.237
35.651301,-2.314,-9.53,-2.198
35.661127,-2.314,-9.492,-2.191
35.670953,-2.354,-9.478,-2.269
35.680779,-2.354,-9.478,-2.269
35.690605,-2.314,-9.44,-2.262
35.700431,-2.275,-9.44,-2.262
35.710257,-2.275,-9.524,-2.237
35.720083,-2.314,-9.53,-2.198
35.729909,-2.314,-9.555,-2.282
35.739735,-2.314,-9.601,-2.251
35.749495,-2.275,-9.555,-2.282
35.759255,-2.197,-9.594,-2.289
35.769015,-2.236,-9.615,-2.173
35.778775,-2.236,-9.569,-2.205
35.788535,-2.314,-9.524,-2.237
35.798295,-2.314,-9.524,-2.237
35.808055,-2.314,-9.537,-2.16
35.817815,-2.275,-9.53,-2.198
35.827575,-2.275,-9.544,-2.121
35.837335,-2.275,-9.576,-2.166
35.847095,-2.314,-9.537,-2.16
35.856855,-2.314,-9.583,-2.128
35.866615,-2.354,-9.544,-2.121
35.876311,-2.314,-9.524,-2.237
35.886007,-2.314,-9.635,-2.057
35.895703,-2.314,-9.621,-2.135
35.905399,-2.314,-9.621,-2.135
35.915095,-2.354,-9.615,-2.173
35.924791,-2.314,-9.615,-2.173
35.934487,-2.275,-9.685,-2.226
35.944183,-2.314,-9.653,-2.18
35.953879,-2.314,-9.646,-2.219
35.963575,-2.354,-9.66,-2.141
35.973271,-2.314,-9.66,-2.141
35.982967,-2.354,-9.569,-2.205
35.992663,-2.354,-9.621,-2.135
36.002359,-2.354,-9.576,-2.166
36.012055,-2.354,-9.569,-2.205
36.021685,-2.314,-9.583,-2.128
36.031315,-2.314,-9.59,-2.089
36.040945,-2.314,-9.59,-2.089
36.050575,-2.314,-9.53,-2.198
36.060205,-2.314,-9.583,-2.128
36.069835,-2.354,-9.621,-2.135
36.079465,-2.354,-9.569,-2.205
36.089095,-2.354,-9.562,-2.244
36.098725,-2.354,-9.576,-2.166
36.108355,-2.314,-9.562,-2.244
36.117985,-2.314,-9.576,-2.166
36.127615,-2.314,-9.542,-2.36
36.137239,-2.314,-9.58,-2.366
36.146863,-2.314,-9.608,-2.212
36.156487,-2.354,-9.569,-2.205
36.166111,-2.314,-9.569,-2.205
36.175735,-2.275,-9.621,-2.135
36.185359,-2.314,-9.576,-2.166
36.194983,-2.314,-9.555,-2.282
36.204607,-2.236,-9.53,-2.198
36.214231,-2.236,-9.524,-2.237
36.223855,-2.197,-9.53,-2.198
36.233479,-2.236,-9.569,-2.205
36.243103,-2.275,-9.555,-2.282
36.252727,-2.236,-9.615,-2.173
36.262351,-2.236,-9.608,-2.212
36.271991,-2.236,-9.555,-2.282
36.281631,-2.197,-9.601,-2.251
36.291271,-2.157,-9.601,-2.251
36.300911,-2.157,-9.646,-2.219
36.310551,-2.118,-9.601,-2.251
36.320191,-2.157,-9.608,-2.212
36.329831,-2.157,-9.594,-2.289
36.339471,-2.118,-9.562,-2.244
36.349111,-2.118,-9.537,-2.16
36.358751,-2.118,-9.53,-2.198
36.368391,-2.157,-9.562,-2.244
36.378031,-2.118,-9.517,-2.276
36.387684,-2.079,-9.628,-2.096
36.397337,-2.079,-9.64,-2.257
36.40699,-2.079,-9.601,-2.251
36.416643,-2.079,-9.569,-2.205
36.426296,-2.118,-9.555,-2.282
36.435949,-2.118,-9.562,-2.244
36.445602,-2.118,-9.524,-2.237
36.455255,-2.079,-9.537,-2.16
36.464908,-2.157,-9.53,-2.198
36.474561,-2.157,-9.569,-2.205
36.484214,-2.157,-9.569,-2.205
36.493867,-2.118,-9.667,-2.103
36.50352,-2.118,-9.615,-2.173
36.513173,-2.118,-9.576,-2.166
36.522848,-2.157,-9.569,-2.205
36.532523,-2.157,-9.649,-1.98
36.542198,-2.118,-9.615,-2.173
36.551873,-2.118,-9.621,-2.135
36.561548,-2.157,-9.66,-2.141
36.571223,-2.157,-9.692,-2.187
36.580898,-2.157,-9.692,-2.187
36.590573,-2.157,-9.737,-2.155
36.600248,-2.157,-9.737,-2.155
36.609923,-2.157,-9.699,-2.148
36.619598,-2.157,-9.646,-2.219
36.629273,-2.197,-9.646,-2.219
36.638948,-2.197,-9.615,-2.173
36.648665,-2.197,-9.59,-2.089
36.658382,-2.118,-9.451,-2.423
36.668099,-2.157,-9.492,-2.191
36.677816,-2.197,-9.492,-2.191
36.687533,-2.197,-9.499,-2.153
36.69725,-2.197,-9.492,-2.191
36.706967,-2.236,-9.537,-2.16
36.716684,-2.275,-9.537,-2.16
36.726401,-2.197,-9.505,-2.114
36.736118,-2.197,-9.544,-2.121
36.745835,-2.197,-9.615,-2.173
36.755552,-2.197,-9.608,-2.212
36.765269,-2.157,-9.576,-2.166
36.775012,-2.157,-9.585,-1.889
36.784755,-2.157,-9.61,-1.973
36.794498,-2.118,-9.621,-2.135
36.804241,-2.079,-9.615,-2.173
36.813984,-2.118,-9.66,-2.141
36.823727,-2.079,-9.667,-2.103
36.83347,-2.079,-9.635,-2.057
36.843213,-2.04,-9.635,-2.057
36.852956,-2.04,-9.642,-2.019
36.862699,-1.961,-9.662,-1.903
36.872442,-1.961,-9.68,-2.026
36.882185,-1.961,-9.68,-2.026
36.891928,-1.922,-9.687,-1.987
36.901671,-1.922,-9.719,-2.032
36.911414,-1.844,-9.726,-1.994
36.921203,-1.844,-9.733,-1.955
36.930992,-1.883,-9.746,-1.878
36.940781,-1.883,-9.687,-1.987
36.95057,-1.883,-9.719,-2.032
36.960359,-1.883,-9.765,-2.001
36.970148,-1.883,-9.739,-1.916
36.979937,-1.883,-9.739,-1.916
36.989726,-1.844,-9.733,-1.955
36.999515,-1.883,-9.719,-2.032
37.009304,-1.844,-9.687,-1.987
37.019093,-1.844,-9.726,-1.994
37.028882,-1.844,-9.771,-1.962
37.038738,-1.765,-9.739,-1.916
37.048594,-1.765,-9.778,-1.923
37.05845,-1.765,-9.785,-1.885
37.068306,-1.804,-9.792,-1.846
37.078162,-1.804,-9.746,-1.878
37.088018,-1.765,-9.753,-1.839
37.097874,-1.804,-9.778,-1.923
37.10773,-1.804,-9.739,-1.916
37.117586,-1.844,-9.765,-2.001
37.127442,-1.804,-9.803,-2.007
37.137298,-1.804,-9.824,-1.891
37.147154,-1.804,-9.83,-1.853
37.15701,-1.804,-9.694,-1.948
37.166948,-1.804,-9.746,-1.878
37.176886,-1.844,-9.746,-1.878
37.186824,-1.804,-9.733,-1.955
37.196762,-1.804,-9.726,-1.994
37.2067,-1.765,-9.687,-1.987
37.216638,-1.726,-9.708,-1.871
37.226576,-1.765,-9.68,-2.026
37.236514,-1.726,-9.655,-1.942
37.246452,-1.765,-9.708,-1.871
37.25639,-1.765,-9.708,-1.871
37.266328,-1.765,-9.642,-2.019
37.276266,-1.804,-9.733,-1.955
37.286204,-1.804,-9.733,-1.955
37.296202,-1.804,-9.76,-1.801
37.3062,-1.844,-9.726,-1.994
37.316198,-1.804,-9.785,-1.885
37.326196,-1.844,-9.719,-2.032
37.336194,-1.844,-9.701,-1.91
37.346192,-1.804,-9.687,-1.987
37.35619,-1.804,-9.701,-1.91
37.366188,-1.844,-9.694,-1.948
37.376186,-1.804,-9.726,-1.994
37.386184,-1.844,-9.739,-1.916
37.396182,-1.844,-9.719,-2.032
37.40618,-1.883,-9.733,-1.955
37.416178,-1.883,-9.753,-1.839
37.426176,-1.804,-9.694,-1.948
37.436202,-1.883,-9.701,-1.91
37.446228,-1.883,-9.61,-1.973
37.456254,-1.883,-9.649,-1.98
37.46628,-1.883,-9.687,-1.987
37.476306,-1.922,-9.662,-1.903
37.486332,-1.922,-9.708,-1.871
37.496358,-1.922,-9.669,-1.864
37.506384,-1.922,-9.694,-1.948
37.51641,-1.961,-9.721,-1.794
37.526436,-1.961,-9.714,-1.832
37.536462,-1.922,-9.708,-1.871
37.546488,-1.922,-9.721,-1.794
37.556514,-1.922,-9.746,-1.878
37.56654,-1.922,-9.753,-1.839
37.576591,-1.922,-9.812,-1.73
37.586642,-1.961,-9.778,-1.923
37.596693,-1.922,-9.774,-1.723
37.606744,-1.961,-9.694,-1.948
37.616795,-1.961,-9.721,-1.794
37.626846,-1.961,-9.701,-1.91
37.636897,-1.922,-9.694,-1.948
37.646948,-1.961,-9.746,-1.878
37.656999,-1.922,-9.746,-1.878
37.66705,-1.961,-9.683,-1.787
37.677101,-2.001,-9.649,-1.98
37.687152,-1.961,-9.669,-1.864
37.697203,-1.961,-9.701,-1.91
37.707283,-1.961,-9.701,-1.91
37.717363,-1.961,-9.669,-1.864
37.727443,-2.001,-9.655,-1.942
37.737523,-1.961,-9.701,-1.91
37.747603,-2.001,-9.662,-1.903
37.757683,-2.001,-9.669,-1.864
37.767763,-1.961,-9.617,-1.935
37.777843,-1.922,-9.63,-1.857
37.787923,-1.961,-9.617,-1.935
37.798003,-2.001,-9.649,-1.98
37.808083,-2.001,-9.649,-1.98
37.818163,-2.001,-9.655,-1.942
37.828243,-1.961,-9.662,-1.903
37.83836,-2.001,-9.662,-1.903
37.848477,-2.001,-9.662,-1.903
37.858594,-1.961,-9.617,-1.935
37.868711,-1.961,-9.669,-1.864
37.878828,-1.961,-9.649,-1.98
37.888945,-2.001,-9.642,-2.019
37.899062,-2.04,-9.662,-1.903
37.909179,-2.079,-9.637,-1.819
37.919296,-2.197,-9.592,-1.851
37.929413,-2.275,-9.56,-1.805
37.93953,-2.354,-9.553,-1.844
37.949647,-2.511,-9.469,-1.869
37.959764,-2.746,-9.424,-1.901
37.969865,-3.02,-9.294,-1.957
37.979966,-3.334,-9.29,-1.757
37.990067,-3.648,-9.224,-1.905
38.000168,-3.883,-9.174,-1.737
38.010269,-3.962,-9.167,-1.776
38.02037,-3.962,-9.16,-1.814
38.030471,-3.883,-9.16,-1.814
38.040572,-3.766,-9.205,-1.783
38.050673,-3.609,-9.194,-1.621
38.060774,-3.373,-9.187,-1.66
38.070875,-3.217,-9.208,-1.544
38.080976,-2.981,-9.26,-1.473
38.091077,-2.785,-9.228,-1.428
38.101178,-2.55,-9.23,-1.189
38.111259,-2.236,-9.224,-1.228
38.12134,-1.922,-9.215,-1.505
38.131421,-1.53,-9.262,-1.235
38.141502,-1.138,-9.335,-1.049
38.151583,-0.824,-9.36,-1.133
38.161664,-0.549,-9.38,-1.017
38.171745,-0.314,-9.419,-1.024
38.181826,-0.078,-9.458,-1.03
38.191907,0.118,-9.464,-0.992
38.201988,0.314,-9.485,-0.876
38.212069,0.431,-9.446,-0.869
38.22215,0.588,-9.428,-0.746
38.232231,0.745,-9.403,-0.662
38.242304,0.902,-9.333,-0.61
38.252377,1.02,-9.405,-0.424
38.26245,1.138,-9.478,-0.237
38.272523,1.255,-9.596,-0.019
38.282596,1.412,-9.771,0.07
38.292669,1.569,-9.926,0.042
38.302742,1.687,-10.171,0.079
38.312815,1.804,-10.314,0.213
38.322888,1.844,-10.391,0.199
38.332961,1.922,-10.469,0.186
38.343034,1.922,-10.612,0.32
38.353107,1.922,-10.644,0.274
38.36318,2.001,-10.625,0.397
38.373223,2.04,-10.594,0.442
38.383266,2.118,-10.555,0.449
38.393309,2.197,-10.512,0.656
38.403352,2.236,-10.494,0.779
38.413395,2.275,-10.384,0.838
38.423438,2.314,-10.269,0.858
38.433481,2.354,-10.184,0.833
38.443524,2.432,-10.107,0.847
38.453567,2.471,-10.037,0.899
38.46361,2.471,-10.005,0.944
38.473653,2.471,-9.966,0.951
38.483696,2.511,-10.019,1.022
38.493739,2.589,-10.18,1.033
38.503782,2.667,-10.18,1.033
38.513825,2.667,-10.262,0.819
38.523842,2.667,-10.316,1.129
38.533859,2.628,-10.309,1.09
38.543876,2.55,-10.284,1.174
38.553893,2.511,-10.2,1.149
38.56391,2.432,-10.123,1.163
38.573927,2.393,-10.064,1.053
38.583944,2.354,-10.007,1.183
38.593961,2.197,-9.969,1.19
38.603978,2.118,-9.93,1.197
38.613995,2.001,-9.871,1.088
38.624012,1.961,-9.916,1.119
38.634029,1.883,-9.889,0.965
38.644022,1.883,-9.898,1.242
38.654015,1.844,-9.773,0.985
38.664008,1.844,-9.728,0.953
38.674001,1.844,-9.791,0.863
38.683994,1.804,-9.83,0.856
38.693987,1.765,-9.844,0.933
38.70398,1.726,-9.819,1.017
38.713973,1.687,-9.696,0.999
38.723966,1.608,-9.625,1.051
38.733959,1.608,-9.535,0.988
38.743952,1.569,-9.56,0.903
38.753945,1.491,-9.546,0.826
38.763938,1.491,-9.648,0.728
38.773924,1.491,-9.637,0.89
38.78391,1.412,-9.694,0.76
38.793896,1.373,-9.735,0.992
38.803882,1.373,-9.632,1.09
38.813868,1.373,-9.6,1.135
38.823854,1.373,-9.657,1.006
38.83384,1.412,-9.766,0.947
38.843826,1.412,-9.794,1.101
38.853812,1.412,-9.705,1.276
38.863798,1.334,-9.691,1.199
38.873784,1.373,-9.73,1.192
38.88377,1.373,-9.691,1.199
38.893756,1.334,-9.655,1.444
38.903742,1.334,-9.669,1.522
38.913697,1.255,-9.687,1.399
38.923652,1.255,-9.805,1.617
38.933607,1.216,-9.83,1.533
38.943562,1.177,-9.816,1.456
38.953517,1.138,-9.889,1.642
38.963472,1.138,-9.916,1.797
38.973427,1.138,-9.857,1.687
38.983382,1.177,-9.864,1.726
38.993337,1.138,-9.909,1.758
39.003292,1.138,-9.878,1.803
39.013247,1.138,-9.884,1.842
39.023202,1.177,-9.912,1.996
39.033157,1.138,-9.905,1.958
39.043112,1.138,-9.918,2.035
39.053038,1.098,-9.925,2.074
39.062964,1.098,-9.898,1.919
39.07289,1.138,-9.95,1.99
39.082816,1.098,-9.893,2.119
39.092742,1.098,-9.932,2.112
39.102668,1.098,-9.939,2.151
39.112594,1.138,-9.914,2.235
39.12252,1.098,-9.855,2.126
39.132446,1.098,-9.896,2.358
39.142372,1.138,-9.928,2.312
39.152298,1.098,-9.889,2.319
39.162224,1.098,-9.889,2.319
39.17215,1.098,-9.921,2.274
39.182032,1.098,-9.889,2.319
39.191914,1.02,-9.857,2.365
39.201796,1.059,-9.857,2.365
39.211678,1.098,-9.805,2.294
39.22156,1.098,-9.864,2.403
39.231442,1.098,-9.857,2.365
39.241324,1.098,-9.896,2.358
39.251206,1.059,-9.909,2.435
39.261088,1.059,-9.903,2.396
39.27097,1.02,-9.864,2.403
39.280852,0.981,-9.857,2.365
39.290734,0.981,-9.798,2.256
39.300616,0.981,-9.759,2.262
39.310498,0.981,-9.689,2.315
39.320342,0.981,-9.755,2.462
39.330186,0.941,-9.728,2.308
39.34003,0.941,-9.682,2.276
39.349874,0.941,-9.721,2.269
39.359718,0.941,-9.766,2.301
39.369562,0.981,-9.759,2.262
39.379406,0.941,-9.721,2.269
39.38925,0.941,-9.728,2.308
39.399094,0.941,-9.662,2.16
39.408938,0.902,-9.696,2.353
39.418782,0.863,-9.773,2.34
39.428626,0.863,-9.773,2.34
39.43847,0.941,-9.721,2.269
39.448295,0.902,-9.707,2.192
39.45812,0.863,-9.759,2.262
39.467945,0.863,-9.805,2.294
39.47777,0.902,-9.805,2.294
39.487595,0.902,-9.766,2.301
39.49742,0.902,-9.825,2.41
39.507245,0.902,-9.793,2.455
39.51707,0.902,-9.741,2.385
39.526895,0.863,-9.787,2.417
39.53672,0.863,-9.696,2.353
39.546545,0.863,-9.709,2.43
39.55637,0.902,-9.741,2.385
39.566195,0.863,-9.716,2.469
39.576015,0.863,-9.755,2.462
39.585835,0.824,-9.807,2.533
39.595655,0.824,-9.755,2.462
39.605475,0.863,-9.807,2.533
39.615295,0.902,-9.807,2.533
39.625115,0.863,-9.839,2.487
39.634935,0.902,-9.877,2.48
39.644755,0.863,-9.937,2.59
39.654575,0.902,-9.993,2.46
39.664395,0.941,-10.123,2.517
39.674215,0.981,-10.259,2.612
39.684035,0.981,-10.323,2.521
39.693855,0.981,-10.412,2.347
39.703681,1.02,-10.541,2.403
39.713507,1.02,-11.018,2.399
39.723333,1.02,-11.095,2.385
39.733159,1.059,-11.225,2.442
39.742985,1.098,-11.141,2.417
39.752811,1.059,-10.916,2.497
39.762637,0.981,-10.741,2.408
39.772463,0.902,-10.552,2.242
39.782289,0.863,-10.443,2.301
39.792115,0.785,-10.312,2.006
